submission_id,question,response1,startDate,comment,experiment_id,group,question1,optionRight,response4,id,question_right_part,question4,option4,expected,option2,option3,option1,endTime,optionLeft,question_left_part,age,response,comments,response3,education,QUD,languages,prolific_id,RT,gender,trial_number,startTime,picture,cost,option7,question3,timeSpent,option5,question2,response2,option6,trial_name
1263,NA,NA,Wed Dec 02 2020 17:30:14 GMT+0000 (Greenwich Mean Time),NA,50,NA,NA,NA,NA,not-red-yellow,.,NA,both blocks fall,"the yellow block falls, but not the red","the yellow block falls, but not the red",none of the two blocks falls,"the red block falls, but not the yellow",1606932370176,NA,The icon represents the event that,46,the,NA,NA,Graduated College,What event does this icon represent?,English,5ba6d33077f30d00014fe202,8021,female,1,1606930214235,stimuli/img/icons/not-red-yellow.png,NA,NA,NA,35.93235,NA,NA,NA,NA,attention_check2
1263,NA,NA,Wed Dec 02 2020 17:30:14 GMT+0000 (Greenwich Mean Time),NA,50,NA,NA,NA,NA,not-yellow-red,.,NA,none of the two blocks falls,"the red block falls, but not the yellow",both blocks fall,"the yellow block falls, but not the red","the red block falls, but not the yellow",1606932370176,NA,The icon represents the event that,46,the,NA,NA,Graduated College,What event does this icon represent?,English,5ba6d33077f30d00014fe202,4478,female,2,1606930214235,stimuli/img/icons/red-not-yellow.png,NA,NA,NA,35.93235,NA,NA,NA,NA,attention_check2
1263,NA,NA,Wed Dec 02 2020 17:30:14 GMT+0000 (Greenwich Mean Time),NA,50,NA,NA,NA,NA,red-yellow,.,NA,both blocks fall,both blocks fall,"the red block falls, but not the yellow","the yellow block falls, but not the red",none of the two blocks falls,1606932370176,NA,The icon represents the event that,46,both,NA,NA,Graduated College,What event does this icon represent?,English,5ba6d33077f30d00014fe202,6382,female,3,1606930214235,stimuli/img/icons/red-yellow.png,NA,NA,NA,35.93235,NA,NA,NA,NA,attention_check2
1263,The sliders represent the beliefs of a person who <br/><b>thinks that yellow falls but probably not red.</b>,NA,Wed Dec 02 2020 17:30:14 GMT+0000 (Greenwich Mean Time),NA,50,NA,NA,NA,NA,slider_choice_yes5,NA,NA,NA,yes,no,NA,yes,1606932370176,NA,NA,46,yes,NA,NA,Graduated College,Please click on the button with the correct answer.,English,5ba6d33077f30d00014fe202,37319,female,1,1606930214235,stimuli/img/slider-choices/yellow-probably-not-red.png,NA,NA,NA,35.93235,NA,NA,NA,NA,slider_choice_training
1263,The sliders represent the beliefs of a person who <br/><b>is very confident that either both or neither of the two blocks fall <br/>and neither is rated as more likely.</b>,NA,Wed Dec 02 2020 17:30:14 GMT+0000 (Greenwich Mean Time),NA,50,NA,NA,NA,NA,slider_choice_no0,NA,NA,NA,no,no,NA,yes,1606932370176,NA,NA,46,yes,NA,NA,Graduated College,Please click on the button with the correct answer.,English,5ba6d33077f30d00014fe202,19774,female,2,1606930214235,stimuli/img/slider-choices/both-or-none-probably-both-not0.png,NA,NA,NA,35.93235,NA,NA,NA,NA,slider_choice_training
1263,The sliders represent the beliefs of a person who <br/><b>thinks that either both or neither of the two blocks fall <br/>and neither is rated as more likely.</b>,NA,Wed Dec 02 2020 17:30:14 GMT+0000 (Greenwich Mean Time),NA,50,NA,NA,NA,NA,slider_choice_yes2,NA,NA,NA,yes,no,NA,yes,1606932370176,NA,NA,46,no,NA,NA,Graduated College,Please click on the button with the correct answer.,English,5ba6d33077f30d00014fe202,26689,female,3,1606930214235,stimuli/img/slider-choices/both-or-none-rather-none.png,NA,NA,NA,35.93235,NA,NA,NA,NA,slider_choice_training
1263,The sliders represent the beliefs of a person who <br/><b>thinks that yellow falls and tends to think that red falls as well.</b>,NA,Wed Dec 02 2020 17:30:14 GMT+0000 (Greenwich Mean Time),NA,50,NA,NA,NA,NA,slider_choice_yes6,NA,NA,NA,yes,no,NA,yes,1606932370176,NA,NA,46,yes,NA,NA,Graduated College,Please click on the button with the correct answer.,English,5ba6d33077f30d00014fe202,14085,female,4,1606930214235,stimuli/img/slider-choices/yellow-probably-red.png,NA,NA,NA,35.93235,NA,NA,NA,NA,slider_choice_training
1263,The sliders represent the beliefs of a person who <br/><b>is pretty certain that the yellow block falls but not the red.</b>,NA,Wed Dec 02 2020 17:30:14 GMT+0000 (Greenwich Mean Time),NA,50,NA,NA,NA,NA,slider_choice_yes3,NA,NA,NA,yes,no,NA,yes,1606932370176,NA,NA,46,yes,NA,NA,Graduated College,Please click on the button with the correct answer.,English,5ba6d33077f30d00014fe202,7212,female,5,1606930214235,stimuli/img/slider-choices/probably-yellow-but-not-red.png,NA,NA,NA,35.93235,NA,NA,NA,NA,slider_choice_training
1263,The sliders represent the beliefs of a person who <br/><b>is pretty certain that the yellow block falls but not the red.</b>,NA,Wed Dec 02 2020 17:30:14 GMT+0000 (Greenwich Mean Time),NA,50,NA,NA,NA,NA,slider_choice_no1,NA,NA,NA,no,no,NA,yes,1606932370176,NA,NA,46,no,NA,NA,Graduated College,Please click on the button with the correct answer.,English,5ba6d33077f30d00014fe202,6852,female,6,1606930214235,stimuli/img/slider-choices/probably-red-but-not-yellow.png,NA,NA,NA,35.93235,NA,NA,NA,NA,slider_choice_training
1263,The sliders represent the beliefs of a person who <br/><b>thinks that either both blocks or neither of the two blocks fall.,NA,Wed Dec 02 2020 17:30:14 GMT+0000 (Greenwich Mean Time),NA,50,NA,NA,NA,NA,slider_choice_yes1,NA,NA,NA,yes,no,NA,yes,1606932370176,NA,NA,46,yes,NA,NA,Graduated College,Please click on the button with the correct answer.,English,5ba6d33077f30d00014fe202,5668,female,7,1606930214235,stimuli/img/slider-choices/both-or-none.png,NA,NA,NA,35.93235,NA,NA,NA,NA,slider_choice_training
1263,The sliders represent the beliefs of a person who <br/><b>thinks that yellow falls but is uncertain whether or not red falls.</b>,NA,Wed Dec 02 2020 17:30:14 GMT+0000 (Greenwich Mean Time),NA,50,NA,NA,NA,NA,slider_choice_yes4,NA,NA,NA,yes,no,NA,yes,1606932370176,NA,NA,46,yes,NA,NA,Graduated College,Please click on the button with the correct answer.,English,5ba6d33077f30d00014fe202,7830,female,8,1606930214235,stimuli/img/slider-choices/yellow-maybe-red.png,NA,NA,NA,35.93235,NA,NA,NA,NA,slider_choice_training
1263,The sliders represent the beliefs of a person who <br/><b>is very confident that yellow falls but is uncertain whether or not red falls.</b>,NA,Wed Dec 02 2020 17:30:14 GMT+0000 (Greenwich Mean Time),NA,50,NA,NA,NA,NA,slider_choice_no2,NA,NA,NA,no,no,NA,yes,1606932370176,NA,NA,46,yes,NA,NA,Graduated College,Please click on the button with the correct answer.,English,5ba6d33077f30d00014fe202,5212,female,9,1606930214235,stimuli/img/slider-choices/red-maybe-yellow.png,NA,NA,NA,35.93235,NA,NA,NA,NA,slider_choice_training
1263,The sliders represent the beliefs of a person who <br/><b>is <b>completely uncertain</b> whether the blocks fall.,NA,Wed Dec 02 2020 17:30:14 GMT+0000 (Greenwich Mean Time),NA,50,NA,NA,NA,NA,slider_choice_yes0,NA,NA,NA,yes,no,NA,yes,1606932370176,NA,NA,46,no,NA,NA,Graduated College,Please click on the button with the correct answer.,English,5ba6d33077f30d00014fe202,7613,female,10,1606930214235,stimuli/img/slider-choices/all-equal.png,NA,NA,NA,35.93235,NA,NA,NA,NA,slider_choice_training
1263,NA,0,Wed Dec 02 2020 17:30:14 GMT+0000 (Greenwich Mean Time),NA,50,NA,ry,certain,0,ind0,NA,none,NA,r,NA,NA,NA,1606932370176,impossible,NA,46,0|100|0|0,NA,0,Graduated College,Please indicate how likely you think the shown events will occur. Click on RUN to see!,English,5ba6d33077f30d00014fe202,309343,female,1,1606930214235,NA,NA,NA,y,35.93235,NA,r,100,NA,animation_slider
1263,NA,0,Wed Dec 02 2020 17:30:14 GMT+0000 (Greenwich Mean Time),NA,50,NA,ry,certain,0,ac2,NA,none,NA,ry,NA,NA,NA,1606932370176,impossible,NA,46,0|0|100|0,NA,100,Graduated College,Please indicate how likely you think the shown events will occur. Click on RUN to see!,English,5ba6d33077f30d00014fe202,31849,female,2,1606930214235,NA,NA,NA,y,35.93235,NA,r,0,NA,animation_slider
1263,NA,100,Wed Dec 02 2020 17:30:14 GMT+0000 (Greenwich Mean Time),NA,50,NA,ry,certain,0,uncertain1,NA,none,NA,r,NA,NA,NA,1606932370176,impossible,NA,46,100|0|0|0,NA,0,Graduated College,Please indicate how likely you think the shown events will occur. Click on RUN to see!,English,5ba6d33077f30d00014fe202,33470,female,3,1606930214235,NA,NA,NA,y,35.93235,NA,r,0,NA,animation_slider
1263,NA,100,Wed Dec 02 2020 17:30:14 GMT+0000 (Greenwich Mean Time),NA,50,NA,ry,certain,0,distance0,NA,none,NA,r,NA,NA,NA,1606932370176,impossible,NA,46,100|0|0|0,NA,0,Graduated College,Please indicate how likely you think the shown events will occur. Click on RUN to see!,English,5ba6d33077f30d00014fe202,28860,female,4,1606930214235,NA,NA,NA,y,35.93235,NA,r,0,NA,animation_slider
1263,NA,100,Wed Dec 02 2020 17:30:14 GMT+0000 (Greenwich Mean Time),NA,50,NA,ry,certain,0,distance1,NA,none,NA,y,NA,NA,NA,1606932370176,impossible,NA,46,100|0|0|0,NA,0,Graduated College,Please indicate how likely you think the shown events will occur. Click on RUN to see!,English,5ba6d33077f30d00014fe202,33128,female,5,1606930214235,NA,NA,NA,y,35.93235,NA,r,0,NA,animation_slider
1263,NA,67,Wed Dec 02 2020 17:30:14 GMT+0000 (Greenwich Mean Time),NA,50,NA,ry,certain,0,ac1,NA,none,NA,y,NA,NA,NA,1606932370176,impossible,NA,46,67|0|33|0,NA,33,Graduated College,Please indicate how likely you think the shown events will occur. Click on RUN to see!,English,5ba6d33077f30d00014fe202,59674,female,6,1606930214235,NA,NA,NA,y,35.93235,NA,r,0,NA,animation_slider
1263,NA,57,Wed Dec 02 2020 17:30:14 GMT+0000 (Greenwich Mean Time),NA,50,NA,ry,certain,14,uncertain3,NA,none,NA,y,NA,NA,NA,1606932370176,impossible,NA,46,57|14|14|14,NA,14,Graduated College,Please indicate how likely you think the shown events will occur. Click on RUN to see!,English,5ba6d33077f30d00014fe202,38400,female,7,1606930214235,NA,NA,NA,y,35.93235,NA,r,14,NA,animation_slider
1263,NA,25,Wed Dec 02 2020 17:30:14 GMT+0000 (Greenwich Mean Time),NA,50,NA,ry,certain,0,ind1,NA,none,NA,ry,NA,NA,NA,1606932370176,impossible,NA,46,25|75|0|0,NA,0,Graduated College,Please indicate how likely you think the shown events will occur. Click on RUN to see!,English,5ba6d33077f30d00014fe202,36211,female,8,1606930214235,NA,NA,NA,y,35.93235,NA,r,75,NA,animation_slider
1263,NA,33,Wed Dec 02 2020 17:30:14 GMT+0000 (Greenwich Mean Time),NA,50,NA,ry,certain,0,ac3,NA,none,NA,none,NA,NA,NA,1606932370176,impossible,NA,46,33|33|33|0,NA,33,Graduated College,Please indicate how likely you think the shown events will occur. Click on RUN to see!,English,5ba6d33077f30d00014fe202,44589,female,9,1606930214235,NA,NA,NA,y,35.93235,NA,r,33,NA,animation_slider
1263,NA,0,Wed Dec 02 2020 17:30:14 GMT+0000 (Greenwich Mean Time),NA,50,NA,ry,certain,50,uncertain2,NA,none,NA,r,NA,NA,NA,1606932370176,impossible,NA,46,0|0|50|50,NA,50,Graduated College,Please indicate how likely you think the shown events will occur. Click on RUN to see!,English,5ba6d33077f30d00014fe202,43090,female,10,1606930214235,NA,NA,NA,y,35.93235,NA,r,0,NA,animation_slider
1263,NA,34,Wed Dec 02 2020 17:30:14 GMT+0000 (Greenwich Mean Time),NA,50,NA,ry,certain,14,ssw0,NA,none,NA,ry,NA,NA,NA,1606932370176,impossible,NA,46,34|17|35|14,NA,35,Graduated College,Please indicate how likely you think the shown events will occur. Click on RUN to see!,English,5ba6d33077f30d00014fe202,41841,female,11,1606930214235,NA,NA,NA,y,35.93235,NA,r,17,NA,animation_slider
1263,NA,27,Wed Dec 02 2020 17:30:14 GMT+0000 (Greenwich Mean Time),NA,50,NA,ry,certain,14,ac0,NA,none,NA,ry,NA,NA,NA,1606932370176,impossible,NA,46,27|30|30|14,NA,30,Graduated College,Please indicate how likely you think the shown events will occur. Click on RUN to see!,English,5ba6d33077f30d00014fe202,37058,female,12,1606930214235,NA,NA,NA,y,35.93235,NA,r,30,NA,animation_slider
1263,NA,40,Wed Dec 02 2020 17:30:14 GMT+0000 (Greenwich Mean Time),NA,50,NA,ry,certain,20,uncertain0,NA,none,NA,y,NA,NA,NA,1606932370176,impossible,NA,46,40|20|20|20,NA,20,Graduated College,Please indicate how likely you think the shown events will occur. Click on RUN to see!,English,5ba6d33077f30d00014fe202,31333,female,13,1606930214235,NA,NA,NA,y,35.93235,NA,r,20,NA,animation_slider
1263,NA,17,Wed Dec 02 2020 17:30:14 GMT+0000 (Greenwich Mean Time),NA,50,NA,ry,certain,17,ssw1,NA,none,NA,none,NA,NA,NA,1606932370176,impossible,NA,46,17|47|20|17,NA,20,Graduated College,Please indicate how likely you think the shown events will occur. Click on RUN to see!,English,5ba6d33077f30d00014fe202,38661,female,14,1606930214235,NA,NA,NA,y,35.93235,NA,r,47,NA,animation_slider
1263,NA,the blue block falls and the green block does not fall,Wed Dec 02 2020 17:30:14 GMT+0000 (Greenwich Mean Time),NA,50,group1,NA,NA,1,ind2,NA,NA,NA,NA,NA,NA,NA,1606932370176,NA,NA,46,the blue block falls and the green block does not fall|,NA,6,Graduated College,TRY OUT EXAMPLE &mdash;Task 2: Please describe to a critical friend as adequately as possible <br/>what happens with the blue and the green block in the picture.,English,5ba6d33077f30d00014fe202,42478,female,1,1606930214235,stimuli/img/train_slider_fridge/ind2_test_colors.jpg,6,NA,NA,35.93235,NA,NA,NA,NA,fridge_train
1263,NA,50,Wed Dec 02 2020 17:30:14 GMT+0000 (Greenwich Mean Time),NA,50,group1,bg,certain,0,if2_hl,NA,none,NA,NA,NA,NA,NA,1606932370176,impossible,NA,46,50|50|0|0,NA,0,Graduated College,Task 1: Please indicate how likely you think the shown events will occur.,English,5ba6d33077f30d00014fe202,43998,female,2,1606930214235,stimuli/img/group1/if2_hl.png,NA,NA,g,35.93235,NA,b,50,NA,multiple_slider0
1263,NA,the blue block falls but the green block does not fall,Wed Dec 02 2020 17:30:14 GMT+0000 (Greenwich Mean Time),NA,50,group1,NA,NA,1,if2_hl,NA,NA,NA,NA,NA,NA,NA,1606932370176,NA,NA,46,the blue block falls but the green block does not fall|,NA,6,Graduated College,Task 2: Please describe to a critical friend as adequately as possible <br/>what happens with the blue and the green block in the picture.,English,5ba6d33077f30d00014fe202,23333,female,3,1606930214235,stimuli/img/group1/if2_hl.png,6,NA,NA,35.93235,NA,NA,NA,NA,fridge_view0
1263,NA,65,Wed Dec 02 2020 17:30:14 GMT+0000 (Greenwich Mean Time),NA,50,group1,bg,certain,0,if1_u-Lh,NA,none,NA,NA,NA,NA,NA,1606932370176,impossible,NA,46,65|13|22|0,NA,22,Graduated College,Task 1: Please indicate how likely you think the shown events will occur.,English,5ba6d33077f30d00014fe202,25439,female,4,1606930214235,stimuli/img/group1/if1_u-Lh.png,NA,NA,g,35.93235,NA,b,13,NA,multiple_slider1
1263,NA,the green block falls if the blue block falls,Wed Dec 02 2020 17:30:14 GMT+0000 (Greenwich Mean Time),NA,50,group1,NA,NA,1,if1_u-Lh,NA,NA,NA,NA,NA,NA,NA,1606932370176,NA,NA,46,the green block falls if the blue block falls|,NA,5,Graduated College,Task 2: Please describe to a critical friend as adequately as possible <br/>what happens with the blue and the green block in the picture.,English,5ba6d33077f30d00014fe202,61406,female,5,1606930214235,stimuli/img/group1/if1_u-Lh.png,5,NA,NA,35.93235,NA,NA,NA,NA,fridge_view1
1263,NA,NA,Wed Dec 02 2020 17:30:14 GMT+0000 (Greenwich Mean Time),NA,50,NA,NA,NA,NA,blue,.,NA,grey,blue,blue,green,black,1606932370176,NA,The block is,46,blue,NA,NA,Graduated College,What's the color of the block on the picture?,English,5ba6d33077f30d00014fe202,4758,female,4,1606930214235,stimuli/img/color_vision_blue.png,NA,yellow,NA,35.93235,purple,NA,NA,red,color-vision0
1263,NA,0,Wed Dec 02 2020 17:30:14 GMT+0000 (Greenwich Mean Time),NA,50,group2,bg,certain,14,independent_hl,NA,none,NA,NA,NA,NA,NA,1606932370176,impossible,NA,46,0|43|43|14,NA,43,Graduated College,Task 1: Please indicate how likely you think the shown events will occur.,English,5ba6d33077f30d00014fe202,45686,female,6,1606930214235,stimuli/img/group2/independent_hl.png,NA,NA,g,35.93235,NA,b,43,NA,multiple_slider2
1263,NA,the green block might not fall,Wed Dec 02 2020 17:30:14 GMT+0000 (Greenwich Mean Time),NA,50,group2,NA,NA,13,independent_hl,NA,NA,NA,NA,NA,NA,NA,1606932370176,NA,NA,46,the green block might not fall|The green block might not fall and the blue block might fall,NA,3,Graduated College,Task 2: Please describe to a critical friend as adequately as possible <br/>what happens with the blue and the green block in the picture.,English,5ba6d33077f30d00014fe202,51837,female,7,1606930214235,stimuli/img/group2/independent_hl.png,3,NA,NA,35.93235,NA,NA,The green block might not fall and the blue block might fall,NA,fridge_view2
1263,NA,54,Wed Dec 02 2020 17:30:14 GMT+0000 (Greenwich Mean Time),NA,50,group2,bg,certain,15,if1_hh,NA,none,NA,NA,NA,NA,NA,1606932370176,impossible,NA,46,54|31|0|15,NA,0,Graduated College,Task 1: Please indicate how likely you think the shown events will occur.,English,5ba6d33077f30d00014fe202,22767,female,8,1606930214235,stimuli/img/group2/if1_hh.png,NA,NA,g,35.93235,NA,b,31,NA,multiple_slider3
1263,NA,both blocks fall,Wed Dec 02 2020 17:30:14 GMT+0000 (Greenwich Mean Time),NA,50,group2,NA,NA,1,if1_hh,NA,NA,NA,NA,NA,NA,NA,1606932370176,NA,NA,46,both blocks fall|,NA,2,Graduated College,Task 2: Please describe to a critical friend as adequately as possible <br/>what happens with the blue and the green block in the picture.,English,5ba6d33077f30d00014fe202,7076,female,9,1606930214235,stimuli/img/group2/if1_hh.png,2,NA,NA,35.93235,NA,NA,NA,NA,fridge_view3
1263,NA,NA,Wed Dec 02 2020 17:30:14 GMT+0000 (Greenwich Mean Time),NA,50,NA,NA,NA,NA,green,.,NA,grey,green,blue,green,black,1606932370176,NA,The block is,46,green,NA,NA,Graduated College,What's the color of the block on the picture?,English,5ba6d33077f30d00014fe202,3326,female,5,1606930214235,stimuli/img/color_vision_green.png,NA,yellow,NA,35.93235,purple,NA,NA,red,color-vision1
1263,NA,19,Wed Dec 02 2020 17:30:14 GMT+0000 (Greenwich Mean Time),NA,50,group1,bg,certain,19,independent_hh,NA,none,NA,NA,NA,NA,NA,1606932370176,impossible,NA,46,19|19|44|19,NA,44,Graduated College,Task 1: Please indicate how likely you think the shown events will occur.,English,5ba6d33077f30d00014fe202,19464,female,10,1606930214235,stimuli/img/group1/independent_hh.png,NA,NA,g,35.93235,NA,b,19,NA,multiple_slider4
1263,NA,the green block falls but the blue block does not,Wed Dec 02 2020 17:30:14 GMT+0000 (Greenwich Mean Time),NA,50,group1,NA,NA,1,independent_hh,NA,NA,NA,NA,NA,NA,NA,1606932370176,NA,NA,46,the green block falls but the blue block does not|,NA,5,Graduated College,Task 2: Please describe to a critical friend as adequately as possible <br/>what happens with the blue and the green block in the picture.,English,5ba6d33077f30d00014fe202,17318,female,11,1606930214235,stimuli/img/group1/independent_hh.png,5,NA,NA,35.93235,NA,NA,NA,NA,fridge_view4
1263,NA,22,Wed Dec 02 2020 17:30:14 GMT+0000 (Greenwich Mean Time),NA,50,group2,bg,certain,2,if2_u-Ll,NA,none,NA,NA,NA,NA,NA,1606932370176,impossible,NA,46,22|5|71|2,NA,71,Graduated College,Task 1: Please indicate how likely you think the shown events will occur.,English,5ba6d33077f30d00014fe202,26630,female,12,1606930214235,stimuli/img/group2/if2_u-Ll.png,NA,NA,g,35.93235,NA,b,5,NA,multiple_slider5
1263,NA,the green block falls and the blue block falls as well,Wed Dec 02 2020 17:30:14 GMT+0000 (Greenwich Mean Time),NA,50,group2,NA,NA,12,if2_u-Ll,NA,NA,NA,NA,NA,NA,NA,1606932370176,NA,NA,46,the green block falls and the blue block falls as well|The green block might fall and the blue block might fall,NA,6,Graduated College,Task 2: Please describe to a critical friend as adequately as possible <br/>what happens with the blue and the green block in the picture.,English,5ba6d33077f30d00014fe202,63380,female,13,1606930214235,stimuli/img/group2/if2_u-Ll.png,6,NA,NA,35.93235,NA,NA,The green block might fall and the blue block might fall,NA,fridge_view5
1263,NA,NA,Wed Dec 02 2020 17:30:14 GMT+0000 (Greenwich Mean Time),NA,50,NA,NA,NA,NA,red-yellow,.,NA,grey,red,blue,green,black,1606932370176,NA,The upper block is,46,red,NA,NA,Graduated College,What's the color of the <b>upper</b> block on the picture?,English,5ba6d33077f30d00014fe202,4222,female,6,1606930214235,stimuli/img/color_vision_red_yellow.png,NA,yellow,NA,35.93235,purple,NA,NA,red,color-vision2
1263,NA,16,Wed Dec 02 2020 17:30:14 GMT+0000 (Greenwich Mean Time),NA,50,group1,bg,certain,7,independent_uh,NA,none,NA,NA,NA,NA,NA,1606932370176,impossible,NA,46,16|70|7|7,NA,7,Graduated College,Task 1: Please indicate how likely you think the shown events will occur.,English,5ba6d33077f30d00014fe202,28607,female,14,1606930214235,stimuli/img/group1/independent_uh.png,NA,NA,g,35.93235,NA,b,70,NA,multiple_slider6
1263,NA,the blue block falls but the green block does not,Wed Dec 02 2020 17:30:14 GMT+0000 (Greenwich Mean Time),NA,50,group1,NA,NA,11,independent_uh,NA,NA,NA,NA,NA,NA,NA,1606932370176,NA,NA,46,the blue block falls but the green block does not|the blue block falls but the green block might not fall,NA,5,Graduated College,Task 2: Please describe to a critical friend as adequately as possible <br/>what happens with the blue and the green block in the picture.,English,5ba6d33077f30d00014fe202,42812,female,15,1606930214235,stimuli/img/group1/independent_uh.png,5,NA,NA,35.93235,NA,NA,the blue block falls but the green block might not fall,NA,fridge_view6
1263,NA,47,Wed Dec 02 2020 17:30:14 GMT+0000 (Greenwich Mean Time),NA,50,group2,bg,certain,10,if2_ll,NA,none,NA,NA,NA,NA,NA,1606932370176,impossible,NA,46,47|10|33|10,NA,33,Graduated College,Task 1: Please indicate how likely you think the shown events will occur.,English,5ba6d33077f30d00014fe202,45558,female,16,1606930214235,stimuli/img/group2/if2_ll.png,NA,NA,g,35.93235,NA,b,10,NA,multiple_slider7
1263,NA,both blocks fall,Wed Dec 02 2020 17:30:14 GMT+0000 (Greenwich Mean Time),NA,50,group2,NA,NA,1,if2_ll,NA,NA,NA,NA,NA,NA,NA,1606932370176,NA,NA,46,both blocks fall|,NA,2,Graduated College,Task 2: Please describe to a critical friend as adequately as possible <br/>what happens with the blue and the green block in the picture.,English,5ba6d33077f30d00014fe202,14749,female,17,1606930214235,stimuli/img/group2/if2_ll.png,2,NA,NA,35.93235,NA,NA,NA,NA,fridge_view7
1263,NA,NA,Wed Dec 02 2020 17:30:14 GMT+0000 (Greenwich Mean Time),NA,50,NA,NA,NA,NA,green-blue,.,NA,grey,green,blue,green,black,1606932370176,NA,The upper block is,46,green,NA,NA,Graduated College,What's the color of the <b>upper</b> block on the picture?,English,5ba6d33077f30d00014fe202,3255,female,7,1606930214235,stimuli/img/color_vision_green_blue.png,NA,yellow,NA,35.93235,purple,NA,NA,red,color-vision3
1263,NA,52,Wed Dec 02 2020 17:30:14 GMT+0000 (Greenwich Mean Time),NA,50,group2,bg,certain,24,if1_uh,NA,none,NA,NA,NA,NA,NA,1606932370176,impossible,NA,46,52|24|0|24,NA,0,Graduated College,Task 1: Please indicate how likely you think the shown events will occur.,English,5ba6d33077f30d00014fe202,40344,female,18,1606930214235,stimuli/img/group2/if1_uh.png,NA,NA,g,35.93235,NA,b,24,NA,multiple_slider8
1263,NA,both blocks fall,Wed Dec 02 2020 17:30:14 GMT+0000 (Greenwich Mean Time),NA,50,group2,NA,NA,12,if1_uh,NA,NA,NA,NA,NA,NA,NA,1606932370176,NA,NA,46,both blocks fall|If the green block falls the blue block will fall as well,NA,2,Graduated College,Task 2: Please describe to a critical friend as adequately as possible <br/>what happens with the blue and the green block in the picture.,English,5ba6d33077f30d00014fe202,33527,female,19,1606930214235,stimuli/img/group2/if1_uh.png,2,NA,NA,35.93235,NA,NA,If the green block falls the blue block will fall as well,NA,fridge_view8
1263,NA,25,Wed Dec 02 2020 17:30:14 GMT+0000 (Greenwich Mean Time),NA,50,group2,bg,certain,25,independent_ul,NA,none,NA,NA,NA,NA,NA,1606932370176,impossible,NA,46,25|25|25|25,NA,25,Graduated College,Task 1: Please indicate how likely you think the shown events will occur.,English,5ba6d33077f30d00014fe202,15198,female,20,1606930214235,stimuli/img/group2/independent_ul.png,NA,NA,g,35.93235,NA,b,25,NA,multiple_slider9
1263,NA,neither the green block nor the blue block falls,Wed Dec 02 2020 17:30:14 GMT+0000 (Greenwich Mean Time),NA,50,group2,NA,NA,1,independent_ul,NA,NA,NA,NA,NA,NA,NA,1606932370176,NA,NA,46,neither the green block nor the blue block falls|,NA,5,Graduated College,Task 2: Please describe to a critical friend as adequately as possible <br/>what happens with the blue and the green block in the picture.,English,5ba6d33077f30d00014fe202,19132,female,21,1606930214235,stimuli/img/group2/independent_ul.png,5,NA,NA,35.93235,NA,NA,NA,NA,fridge_view9
1263,NA,NA,Wed Dec 02 2020 17:30:14 GMT+0000 (Greenwich Mean Time),NA,50,NA,NA,NA,NA,blue-green,.,NA,grey,blue,blue,green,black,1606932370176,NA,The upper block is,46,blue,NA,NA,Graduated College,What's the color of the <b>upper</b> block on the picture?,English,5ba6d33077f30d00014fe202,3622,female,8,1606930214235,stimuli/img/color_vision_blue_green.png,NA,yellow,NA,35.93235,purple,NA,NA,red,color-vision4
1263,NA,52,Wed Dec 02 2020 17:30:14 GMT+0000 (Greenwich Mean Time),NA,50,group2,bg,certain,22,if1_lh,NA,none,NA,NA,NA,NA,NA,1606932370176,impossible,NA,46,52|22|4|22,NA,4,Graduated College,Task 1: Please indicate how likely you think the shown events will occur.,English,5ba6d33077f30d00014fe202,39023,female,22,1606930214235,stimuli/img/group2/if1_lh.png,NA,NA,g,35.93235,NA,b,22,NA,multiple_slider10
1263,NA,if the green block falls the blue block falls as well,Wed Dec 02 2020 17:30:14 GMT+0000 (Greenwich Mean Time),NA,50,group2,NA,NA,1,if1_lh,NA,NA,NA,NA,NA,NA,NA,1606932370176,NA,NA,46,if the green block falls the blue block falls as well|,NA,6,Graduated College,Task 2: Please describe to a critical friend as adequately as possible <br/>what happens with the blue and the green block in the picture.,English,5ba6d33077f30d00014fe202,18406,female,23,1606930214235,stimuli/img/group2/if1_lh.png,6,NA,NA,35.93235,NA,NA,NA,NA,fridge_view10
1263,NA,53,Wed Dec 02 2020 17:30:14 GMT+0000 (Greenwich Mean Time),NA,50,group2,bg,certain,16,if2_ul,NA,none,NA,NA,NA,NA,NA,1606932370176,impossible,NA,46,53|16|16|16,NA,16,Graduated College,Task 1: Please indicate how likely you think the shown events will occur.,English,5ba6d33077f30d00014fe202,66510,female,24,1606930214235,stimuli/img/group2/if2_ul.png,NA,NA,g,35.93235,NA,b,16,NA,multiple_slider11
1263,NA,if the green block falls the blue block falls as well,Wed Dec 02 2020 17:30:14 GMT+0000 (Greenwich Mean Time),NA,50,group2,NA,NA,11,if2_ul,NA,NA,NA,NA,NA,NA,NA,1606932370176,NA,NA,46,if the green block falls the blue block falls as well|If the green block falls the blue block might not fall,NA,6,Graduated College,Task 2: Please describe to a critical friend as adequately as possible <br/>what happens with the blue and the green block in the picture.,English,5ba6d33077f30d00014fe202,32526,female,25,1606930214235,stimuli/img/group2/if2_ul.png,6,NA,NA,35.93235,NA,NA,If the green block falls the blue block might not fall,NA,fridge_view11
1263,NA,NA,Wed Dec 02 2020 17:30:14 GMT+0000 (Greenwich Mean Time),NA,50,NA,NA,NA,NA,yellow-red,.,NA,grey,yellow,blue,green,black,1606932370176,NA,The upper block is,46,yellow,NA,NA,Graduated College,What's the color of the <b>upper</b> block on the picture?,English,5ba6d33077f30d00014fe202,3901,female,9,1606930214235,stimuli/img/color_vision_yellow_red.png,NA,yellow,NA,35.93235,purple,NA,NA,red,color-vision5
1263,NA,16,Wed Dec 02 2020 17:30:14 GMT+0000 (Greenwich Mean Time),NA,50,group1,bg,certain,16,independent_ll,NA,none,NA,NA,NA,NA,NA,1606932370176,impossible,NA,46,16|34|34|16,NA,34,Graduated College,Task 1: Please indicate how likely you think the shown events will occur.,English,5ba6d33077f30d00014fe202,29535,female,26,1606930214235,stimuli/img/group1/independent_ll.png,NA,NA,g,35.93235,NA,b,34,NA,multiple_slider12
1263,NA,neither block falls,Wed Dec 02 2020 17:30:14 GMT+0000 (Greenwich Mean Time),NA,50,group1,NA,NA,1,independent_ll,NA,NA,NA,NA,NA,NA,NA,1606932370176,NA,NA,46,neither block falls|,NA,2,Graduated College,Task 2: Please describe to a critical friend as adequately as possible <br/>what happens with the blue and the green block in the picture.,English,5ba6d33077f30d00014fe202,10829,female,27,1606930214235,stimuli/img/group1/independent_ll.png,2,NA,NA,35.93235,NA,NA,NA,NA,fridge_view12
1262,NA,NA,Wed Dec 02 2020 11:03:08 GMT-0500 (Eastern Standard Time),NA,50,NA,NA,NA,NA,not-red-yellow,.,NA,both blocks fall,"the yellow block falls, but not the red","the yellow block falls, but not the red",none of the two blocks falls,"the red block falls, but not the yellow",1606929200670,NA,The icon represents the event that,52,the,Thank you!,NA,Graduated College,What event does this icon represent?,English,5b0c690b444cef0001ca5904,15092,female,1,1606924988105,stimuli/img/icons/not-red-yellow.png,NA,NA,NA,70.20941666666667,NA,NA,NA,NA,attention_check2
1262,NA,NA,Wed Dec 02 2020 11:03:08 GMT-0500 (Eastern Standard Time),NA,50,NA,NA,NA,NA,not-yellow-red,.,NA,none of the two blocks falls,"the red block falls, but not the yellow",both blocks fall,"the yellow block falls, but not the red","the red block falls, but not the yellow",1606929200670,NA,The icon represents the event that,52,the,Thank you!,NA,Graduated College,What event does this icon represent?,English,5b0c690b444cef0001ca5904,9606,female,2,1606924988105,stimuli/img/icons/red-not-yellow.png,NA,NA,NA,70.20941666666667,NA,NA,NA,NA,attention_check2
1262,NA,NA,Wed Dec 02 2020 11:03:08 GMT-0500 (Eastern Standard Time),NA,50,NA,NA,NA,NA,red-yellow,.,NA,both blocks fall,both blocks fall,"the red block falls, but not the yellow","the yellow block falls, but not the red",none of the two blocks falls,1606929200670,NA,The icon represents the event that,52,both,Thank you!,NA,Graduated College,What event does this icon represent?,English,5b0c690b444cef0001ca5904,6210,female,3,1606924988105,stimuli/img/icons/red-yellow.png,NA,NA,NA,70.20941666666667,NA,NA,NA,NA,attention_check2
1262,The sliders represent the beliefs of a person who <br/><b>thinks that red falls but is uncertain whether or not yellow falls.</b>,NA,Wed Dec 02 2020 11:03:08 GMT-0500 (Eastern Standard Time),NA,50,NA,NA,NA,NA,slider_choice_yes4,NA,NA,NA,yes,no,NA,yes,1606929200670,NA,NA,52,no,Thank you!,NA,Graduated College,Please click on the button with the correct answer.,English,5b0c690b444cef0001ca5904,115107,female,1,1606924988105,stimuli/img/slider-choices/red-maybe-yellow.png,NA,NA,NA,70.20941666666667,NA,NA,NA,NA,slider_choice_training
1262,The sliders represent the beliefs of a person who <br/><b>is very confident that either both or neither of the two blocks fall <br/>and neither is rated as more likely.</b>,NA,Wed Dec 02 2020 11:03:08 GMT-0500 (Eastern Standard Time),NA,50,NA,NA,NA,NA,slider_choice_no0,NA,NA,NA,no,no,NA,yes,1606929200670,NA,NA,52,yes,Thank you!,NA,Graduated College,Please click on the button with the correct answer.,English,5b0c690b444cef0001ca5904,65085,female,2,1606924988105,stimuli/img/slider-choices/both-or-none-probably-both-not0.png,NA,NA,NA,70.20941666666667,NA,NA,NA,NA,slider_choice_training
1262,The sliders represent the beliefs of a person who <br/><b>is pretty certain that the yellow block falls but not the red.</b>,NA,Wed Dec 02 2020 11:03:08 GMT-0500 (Eastern Standard Time),NA,50,NA,NA,NA,NA,slider_choice_yes3,NA,NA,NA,yes,no,NA,yes,1606929200670,NA,NA,52,yes,Thank you!,NA,Graduated College,Please click on the button with the correct answer.,English,5b0c690b444cef0001ca5904,96645,female,3,1606924988105,stimuli/img/slider-choices/probably-yellow-but-not-red.png,NA,NA,NA,70.20941666666667,NA,NA,NA,NA,slider_choice_training
1262,The sliders represent the beliefs of a person who <br/><b>thinks that red falls but probably not yellow.</b>,NA,Wed Dec 02 2020 11:03:08 GMT-0500 (Eastern Standard Time),NA,50,NA,NA,NA,NA,slider_choice_yes5,NA,NA,NA,yes,no,NA,yes,1606929200670,NA,NA,52,no,Thank you!,NA,Graduated College,Please click on the button with the correct answer.,English,5b0c690b444cef0001ca5904,111081,female,4,1606924988105,stimuli/img/slider-choices/red-probably-not-yellow.png,NA,NA,NA,70.20941666666667,NA,NA,NA,NA,slider_choice_training
1262,The sliders represent the beliefs of a person who <br/><b>thinks that either both or neither of the two blocks fall <br/>and neither is rated as more likely.</b>,NA,Wed Dec 02 2020 11:03:08 GMT-0500 (Eastern Standard Time),NA,50,NA,NA,NA,NA,slider_choice_yes2,NA,NA,NA,yes,no,NA,yes,1606929200670,NA,NA,52,yes,Thank you!,NA,Graduated College,Please click on the button with the correct answer.,English,5b0c690b444cef0001ca5904,37450,female,5,1606924988105,stimuli/img/slider-choices/both-or-none-rather-none.png,NA,NA,NA,70.20941666666667,NA,NA,NA,NA,slider_choice_training
1262,The sliders represent the beliefs of a person who <br/><b>is pretty certain that the yellow block falls but not the red.</b>,NA,Wed Dec 02 2020 11:03:08 GMT-0500 (Eastern Standard Time),NA,50,NA,NA,NA,NA,slider_choice_no1,NA,NA,NA,no,no,NA,yes,1606929200670,NA,NA,52,no,Thank you!,NA,Graduated College,Please click on the button with the correct answer.,English,5b0c690b444cef0001ca5904,204581,female,6,1606924988105,stimuli/img/slider-choices/probably-red-but-not-yellow.png,NA,NA,NA,70.20941666666667,NA,NA,NA,NA,slider_choice_training
1262,The sliders represent the beliefs of a person who <br/><b>thinks that either both blocks or neither of the two blocks fall.,NA,Wed Dec 02 2020 11:03:08 GMT-0500 (Eastern Standard Time),NA,50,NA,NA,NA,NA,slider_choice_yes1,NA,NA,NA,yes,no,NA,yes,1606929200670,NA,NA,52,yes,Thank you!,NA,Graduated College,Please click on the button with the correct answer.,English,5b0c690b444cef0001ca5904,38950,female,7,1606924988105,stimuli/img/slider-choices/both-or-none.png,NA,NA,NA,70.20941666666667,NA,NA,NA,NA,slider_choice_training
1262,The sliders represent the beliefs of a person who <br/><b>thinks that yellow falls and tends to think that red falls as well.</b>,NA,Wed Dec 02 2020 11:03:08 GMT-0500 (Eastern Standard Time),NA,50,NA,NA,NA,NA,slider_choice_yes6,NA,NA,NA,yes,no,NA,yes,1606929200670,NA,NA,52,yes,Thank you!,NA,Graduated College,Please click on the button with the correct answer.,English,5b0c690b444cef0001ca5904,26108,female,8,1606924988105,stimuli/img/slider-choices/yellow-probably-red.png,NA,NA,NA,70.20941666666667,NA,NA,NA,NA,slider_choice_training
1262,The sliders represent the beliefs of a person who <br/><b>is very confident that red falls but is uncertain whether or not yellow falls.</b>,NA,Wed Dec 02 2020 11:03:08 GMT-0500 (Eastern Standard Time),NA,50,NA,NA,NA,NA,slider_choice_no2,NA,NA,NA,no,no,NA,yes,1606929200670,NA,NA,52,yes,Thank you!,NA,Graduated College,Please click on the button with the correct answer.,English,5b0c690b444cef0001ca5904,33749,female,9,1606924988105,stimuli/img/slider-choices/yellow-maybe-red.png,NA,NA,NA,70.20941666666667,NA,NA,NA,NA,slider_choice_training
1262,The sliders represent the beliefs of a person who <br/><b>is <b>completely uncertain</b> whether the blocks fall.,NA,Wed Dec 02 2020 11:03:08 GMT-0500 (Eastern Standard Time),NA,50,NA,NA,NA,NA,slider_choice_yes0,NA,NA,NA,yes,no,NA,yes,1606929200670,NA,NA,52,yes,Thank you!,NA,Graduated College,Please click on the button with the correct answer.,English,5b0c690b444cef0001ca5904,24008,female,10,1606924988105,stimuli/img/slider-choices/all-equal.png,NA,NA,NA,70.20941666666667,NA,NA,NA,NA,slider_choice_training
1262,NA,0,Wed Dec 02 2020 11:03:08 GMT-0500 (Eastern Standard Time),NA,50,NA,ry,certain,0,ind0,NA,none,NA,r,NA,NA,NA,1606929200670,impossible,NA,52,0|100|0|0,Thank you!,0,Graduated College,Please indicate how likely you think the shown events will occur. Click on RUN to see!,English,5b0c690b444cef0001ca5904,98168,female,1,1606924988105,NA,NA,NA,y,70.20941666666667,NA,r,100,NA,animation_slider
1262,NA,100,Wed Dec 02 2020 11:03:08 GMT-0500 (Eastern Standard Time),NA,50,NA,ry,certain,0,ac1,NA,none,NA,y,NA,NA,NA,1606929200670,impossible,NA,52,100|0|0|0,Thank you!,0,Graduated College,Please indicate how likely you think the shown events will occur. Click on RUN to see!,English,5b0c690b444cef0001ca5904,75371,female,2,1606924988105,NA,NA,NA,y,70.20941666666667,NA,r,0,NA,animation_slider
1262,NA,0,Wed Dec 02 2020 11:03:08 GMT-0500 (Eastern Standard Time),NA,50,NA,ry,certain,0,uncertain3,NA,none,NA,y,NA,NA,NA,1606929200670,impossible,NA,52,0|0|100|0,Thank you!,100,Graduated College,Please indicate how likely you think the shown events will occur. Click on RUN to see!,English,5b0c690b444cef0001ca5904,36032,female,3,1606924988105,NA,NA,NA,y,70.20941666666667,NA,r,0,NA,animation_slider
1262,NA,20,Wed Dec 02 2020 11:03:08 GMT-0500 (Eastern Standard Time),NA,50,NA,ry,certain,35,distance0,NA,none,NA,r,NA,NA,NA,1606929200670,impossible,NA,52,20|38|6|35,Thank you!,6,Graduated College,Please indicate how likely you think the shown events will occur. Click on RUN to see!,English,5b0c690b444cef0001ca5904,136996,female,4,1606924988105,NA,NA,NA,y,70.20941666666667,NA,r,38,NA,animation_slider
1262,NA,15,Wed Dec 02 2020 11:03:08 GMT-0500 (Eastern Standard Time),NA,50,NA,ry,certain,49,distance1,NA,none,NA,y,NA,NA,NA,1606929200670,impossible,NA,52,15|0|36|49,Thank you!,36,Graduated College,Please indicate how likely you think the shown events will occur. Click on RUN to see!,English,5b0c690b444cef0001ca5904,97204,female,5,1606924988105,NA,NA,NA,y,70.20941666666667,NA,r,0,NA,animation_slider
1262,NA,48,Wed Dec 02 2020 11:03:08 GMT-0500 (Eastern Standard Time),NA,50,NA,ry,certain,9,ac2,NA,none,NA,ry,NA,NA,NA,1606929200670,impossible,NA,52,48|29|14|9,Thank you!,14,Graduated College,Please indicate how likely you think the shown events will occur. Click on RUN to see!,English,5b0c690b444cef0001ca5904,105504,female,6,1606924988105,NA,NA,NA,y,70.20941666666667,NA,r,29,NA,animation_slider
1262,NA,22,Wed Dec 02 2020 11:03:08 GMT-0500 (Eastern Standard Time),NA,50,NA,ry,certain,0,uncertain2,NA,none,NA,r,NA,NA,NA,1606929200670,impossible,NA,52,22|78|0|0,Thank you!,0,Graduated College,Please indicate how likely you think the shown events will occur. Click on RUN to see!,English,5b0c690b444cef0001ca5904,57251,female,7,1606924988105,NA,NA,NA,y,70.20941666666667,NA,r,78,NA,animation_slider
1262,NA,0,Wed Dec 02 2020 11:03:08 GMT-0500 (Eastern Standard Time),NA,50,NA,ry,certain,0,ind1,NA,none,NA,ry,NA,NA,NA,1606929200670,impossible,NA,52,0|100|0|0,Thank you!,0,Graduated College,Please indicate how likely you think the shown events will occur. Click on RUN to see!,English,5b0c690b444cef0001ca5904,37309,female,8,1606924988105,NA,NA,NA,y,70.20941666666667,NA,r,100,NA,animation_slider
1262,NA,79,Wed Dec 02 2020 11:03:08 GMT-0500 (Eastern Standard Time),NA,50,NA,ry,certain,0,ac0,NA,none,NA,ry,NA,NA,NA,1606929200670,impossible,NA,52,79|21|0|0,Thank you!,0,Graduated College,Please indicate how likely you think the shown events will occur. Click on RUN to see!,English,5b0c690b444cef0001ca5904,46284,female,9,1606924988105,NA,NA,NA,y,70.20941666666667,NA,r,21,NA,animation_slider
1262,NA,11,Wed Dec 02 2020 11:03:08 GMT-0500 (Eastern Standard Time),NA,50,NA,ry,certain,9,uncertain0,NA,none,NA,y,NA,NA,NA,1606929200670,impossible,NA,52,11|40|40|9,Thank you!,40,Graduated College,Please indicate how likely you think the shown events will occur. Click on RUN to see!,English,5b0c690b444cef0001ca5904,44059,female,10,1606924988105,NA,NA,NA,y,70.20941666666667,NA,r,40,NA,animation_slider
1262,NA,46,Wed Dec 02 2020 11:03:08 GMT-0500 (Eastern Standard Time),NA,50,NA,ry,certain,54,ssw0,NA,none,NA,ry,NA,NA,NA,1606929200670,impossible,NA,52,46|0|0|54,Thank you!,0,Graduated College,Please indicate how likely you think the shown events will occur. Click on RUN to see!,English,5b0c690b444cef0001ca5904,91283,female,11,1606924988105,NA,NA,NA,y,70.20941666666667,NA,r,0,NA,animation_slider
1262,NA,32,Wed Dec 02 2020 11:03:08 GMT-0500 (Eastern Standard Time),NA,50,NA,ry,certain,30,ac3,NA,none,NA,none,NA,NA,NA,1606929200670,impossible,NA,52,32|1|37|30,Thank you!,37,Graduated College,Please indicate how likely you think the shown events will occur. Click on RUN to see!,English,5b0c690b444cef0001ca5904,82614,female,12,1606924988105,NA,NA,NA,y,70.20941666666667,NA,r,1,NA,animation_slider
1262,NA,0,Wed Dec 02 2020 11:03:08 GMT-0500 (Eastern Standard Time),NA,50,NA,ry,certain,0,uncertain1,NA,none,NA,r,NA,NA,NA,1606929200670,impossible,NA,52,0|100|0|0,Thank you!,0,Graduated College,Please indicate how likely you think the shown events will occur. Click on RUN to see!,English,5b0c690b444cef0001ca5904,45927,female,13,1606924988105,NA,NA,NA,y,70.20941666666667,NA,r,100,NA,animation_slider
1262,NA,44,Wed Dec 02 2020 11:03:08 GMT-0500 (Eastern Standard Time),NA,50,NA,ry,certain,49,ssw1,NA,none,NA,none,NA,NA,NA,1606929200670,impossible,NA,52,44|0|8|49,Thank you!,8,Graduated College,Please indicate how likely you think the shown events will occur. Click on RUN to see!,English,5b0c690b444cef0001ca5904,45601,female,14,1606924988105,NA,NA,NA,y,70.20941666666667,NA,r,0,NA,animation_slider
1262,NA,the blue block does not fall and the green block falls,Wed Dec 02 2020 11:03:08 GMT-0500 (Eastern Standard Time),NA,50,group2,NA,NA,1,ind2,NA,NA,NA,NA,NA,NA,NA,1606929200670,NA,NA,52,the blue block does not fall and the green block falls|,Thank you!,6,Graduated College,TRY OUT EXAMPLE &mdash;Task 2: Please describe to a critical friend as adequately as possible <br/>what happens with the blue and the green block in the picture.,English,5b0c690b444cef0001ca5904,82018,female,1,1606924988105,stimuli/img/train_slider_fridge/ind2_test_colors.jpg,6,NA,NA,70.20941666666667,NA,NA,NA,NA,fridge_train
1262,NA,72,Wed Dec 02 2020 11:03:08 GMT-0500 (Eastern Standard Time),NA,50,group1,bg,certain,0,if1_hh,NA,none,NA,NA,NA,NA,NA,1606929200670,impossible,NA,52,72|28|0|0,Thank you!,0,Graduated College,Task 1: Please indicate how likely you think the shown events will occur.,English,5b0c690b444cef0001ca5904,45156,female,2,1606924988105,stimuli/img/group1/if1_hh.png,NA,NA,g,70.20941666666667,NA,b,28,NA,multiple_slider0
1262,NA,the blue block falls and the green block does not fall,Wed Dec 02 2020 11:03:08 GMT-0500 (Eastern Standard Time),NA,50,group1,NA,NA,1,if1_hh,NA,NA,NA,NA,NA,NA,NA,1606929200670,NA,NA,52,the blue block falls and the green block does not fall|,Thank you!,6,Graduated College,Task 2: Please describe to a critical friend as adequately as possible <br/>what happens with the blue and the green block in the picture.,English,5b0c690b444cef0001ca5904,96015,female,3,1606924988105,stimuli/img/group1/if1_hh.png,6,NA,NA,70.20941666666667,NA,NA,NA,NA,fridge_view0
1262,NA,42,Wed Dec 02 2020 11:03:08 GMT-0500 (Eastern Standard Time),NA,50,group2,bg,certain,23,if2_ul,NA,none,NA,NA,NA,NA,NA,1606929200670,impossible,NA,52,42|0|35|23,Thank you!,35,Graduated College,Task 1: Please indicate how likely you think the shown events will occur.,English,5b0c690b444cef0001ca5904,93284,female,4,1606924988105,stimuli/img/group2/if2_ul.png,NA,NA,g,70.20941666666667,NA,b,0,NA,multiple_slider1
1262,NA,both blocks fall,Wed Dec 02 2020 11:03:08 GMT-0500 (Eastern Standard Time),NA,50,group2,NA,NA,1,if2_ul,NA,NA,NA,NA,NA,NA,NA,1606929200670,NA,NA,52,both blocks fall|,Thank you!,2,Graduated College,Task 2: Please describe to a critical friend as adequately as possible <br/>what happens with the blue and the green block in the picture.,English,5b0c690b444cef0001ca5904,28853,female,5,1606924988105,stimuli/img/group2/if2_ul.png,2,NA,NA,70.20941666666667,NA,NA,NA,NA,fridge_view1
1262,NA,NA,Wed Dec 02 2020 11:03:08 GMT-0500 (Eastern Standard Time),NA,50,NA,NA,NA,NA,green,.,NA,grey,green,blue,green,black,1606929200670,NA,The block is,52,green,Thank you!,NA,Graduated College,What's the color of the block on the picture?,English,5b0c690b444cef0001ca5904,12329,female,4,1606924988105,stimuli/img/color_vision_green.png,NA,yellow,NA,70.20941666666667,purple,NA,NA,red,color-vision0
1262,NA,31,Wed Dec 02 2020 11:03:08 GMT-0500 (Eastern Standard Time),NA,50,group1,bg,certain,5,independent_uh,NA,none,NA,NA,NA,NA,NA,1606929200670,impossible,NA,52,31|12|52|5,Thank you!,52,Graduated College,Task 1: Please indicate how likely you think the shown events will occur.,English,5b0c690b444cef0001ca5904,50495,female,6,1606924988105,stimuli/img/group1/independent_uh.png,NA,NA,g,70.20941666666667,NA,b,12,NA,multiple_slider2
1262,NA,the blue block does not fall but the green block falls,Wed Dec 02 2020 11:03:08 GMT-0500 (Eastern Standard Time),NA,50,group1,NA,NA,1,independent_uh,NA,NA,NA,NA,NA,NA,NA,1606929200670,NA,NA,52,the blue block does not fall but the green block falls|,Thank you!,6,Graduated College,Task 2: Please describe to a critical friend as adequately as possible <br/>what happens with the blue and the green block in the picture.,English,5b0c690b444cef0001ca5904,50482,female,7,1606924988105,stimuli/img/group1/independent_uh.png,6,NA,NA,70.20941666666667,NA,NA,NA,NA,fridge_view2
1262,NA,0,Wed Dec 02 2020 11:03:08 GMT-0500 (Eastern Standard Time),NA,50,group2,bg,certain,100,if2_ll,NA,none,NA,NA,NA,NA,NA,1606929200670,impossible,NA,52,0|0|0|100,Thank you!,0,Graduated College,Task 1: Please indicate how likely you think the shown events will occur.,English,5b0c690b444cef0001ca5904,36296,female,8,1606924988105,stimuli/img/group2/if2_ll.png,NA,NA,g,70.20941666666667,NA,b,0,NA,multiple_slider3
1262,NA,neither block falls,Wed Dec 02 2020 11:03:08 GMT-0500 (Eastern Standard Time),NA,50,group2,NA,NA,1,if2_ll,NA,NA,NA,NA,NA,NA,NA,1606929200670,NA,NA,52,neither block falls|,Thank you!,2,Graduated College,Task 2: Please describe to a critical friend as adequately as possible <br/>what happens with the blue and the green block in the picture.,English,5b0c690b444cef0001ca5904,101537,female,9,1606924988105,stimuli/img/group2/if2_ll.png,2,NA,NA,70.20941666666667,NA,NA,NA,NA,fridge_view3
1262,NA,NA,Wed Dec 02 2020 11:03:08 GMT-0500 (Eastern Standard Time),NA,50,NA,NA,NA,NA,green-blue,.,NA,grey,green,blue,green,black,1606929200670,NA,The upper block is,52,green,Thank you!,NA,Graduated College,What's the color of the <b>upper</b> block on the picture?,English,5b0c690b444cef0001ca5904,12165,female,5,1606924988105,stimuli/img/color_vision_green_blue.png,NA,yellow,NA,70.20941666666667,purple,NA,NA,red,color-vision1
1262,NA,0,Wed Dec 02 2020 11:03:08 GMT-0500 (Eastern Standard Time),NA,50,group2,bg,certain,0,independent_ll,NA,none,NA,NA,NA,NA,NA,1606929200670,impossible,NA,52,0|100|0|0,Thank you!,0,Graduated College,Task 1: Please indicate how likely you think the shown events will occur.,English,5b0c690b444cef0001ca5904,67673,female,10,1606924988105,stimuli/img/group2/independent_ll.png,NA,NA,g,70.20941666666667,NA,b,100,NA,multiple_slider4
1262,NA,the green block does not fall and the blue block falls,Wed Dec 02 2020 11:03:08 GMT-0500 (Eastern Standard Time),NA,50,group2,NA,NA,1,independent_ll,NA,NA,NA,NA,NA,NA,NA,1606929200670,NA,NA,52,the green block does not fall and the blue block falls|,Thank you!,6,Graduated College,Task 2: Please describe to a critical friend as adequately as possible <br/>what happens with the blue and the green block in the picture.,English,5b0c690b444cef0001ca5904,90503,female,11,1606924988105,stimuli/img/group2/independent_ll.png,6,NA,NA,70.20941666666667,NA,NA,NA,NA,fridge_view4
1262,NA,35,Wed Dec 02 2020 11:03:08 GMT-0500 (Eastern Standard Time),NA,50,group1,bg,certain,32,if1_uh,NA,none,NA,NA,NA,NA,NA,1606929200670,impossible,NA,52,35|33|0|32,Thank you!,0,Graduated College,Task 1: Please indicate how likely you think the shown events will occur.,English,5b0c690b444cef0001ca5904,78768,female,12,1606924988105,stimuli/img/group1/if1_uh.png,NA,NA,g,70.20941666666667,NA,b,33,NA,multiple_slider5
1262,NA,if the blue block does not fall the green block does not fall,Wed Dec 02 2020 11:03:08 GMT-0500 (Eastern Standard Time),NA,50,group1,NA,NA,1,if1_uh,NA,NA,NA,NA,NA,NA,NA,1606929200670,NA,NA,52,if the blue block does not fall the green block does not fall|,Thank you!,7,Graduated College,Task 2: Please describe to a critical friend as adequately as possible <br/>what happens with the blue and the green block in the picture.,English,5b0c690b444cef0001ca5904,95165,female,13,1606924988105,stimuli/img/group1/if1_uh.png,7,NA,NA,70.20941666666667,NA,NA,NA,NA,fridge_view5
1262,NA,NA,Wed Dec 02 2020 11:03:08 GMT-0500 (Eastern Standard Time),NA,50,NA,NA,NA,NA,red-yellow,.,NA,grey,red,blue,green,black,1606929200670,NA,The upper block is,52,red,Thank you!,NA,Graduated College,What's the color of the <b>upper</b> block on the picture?,English,5b0c690b444cef0001ca5904,10712,female,6,1606924988105,stimuli/img/color_vision_red_yellow.png,NA,yellow,NA,70.20941666666667,purple,NA,NA,red,color-vision2
1262,NA,0,Wed Dec 02 2020 11:03:08 GMT-0500 (Eastern Standard Time),NA,50,group1,bg,certain,0,independent_hl,NA,none,NA,NA,NA,NA,NA,1606929200670,impossible,NA,52,0|100|0|0,Thank you!,0,Graduated College,Task 1: Please indicate how likely you think the shown events will occur.,English,5b0c690b444cef0001ca5904,57827,female,14,1606924988105,stimuli/img/group1/independent_hl.png,NA,NA,g,70.20941666666667,NA,b,100,NA,multiple_slider6
1262,NA,the blue block falls but the green block does not fall,Wed Dec 02 2020 11:03:08 GMT-0500 (Eastern Standard Time),NA,50,group1,NA,NA,1,independent_hl,NA,NA,NA,NA,NA,NA,NA,1606929200670,NA,NA,52,the blue block falls but the green block does not fall|,Thank you!,6,Graduated College,Task 2: Please describe to a critical friend as adequately as possible <br/>what happens with the blue and the green block in the picture.,English,5b0c690b444cef0001ca5904,29298,female,15,1606924988105,stimuli/img/group1/independent_hl.png,6,NA,NA,70.20941666666667,NA,NA,NA,NA,fridge_view6
1262,NA,19,Wed Dec 02 2020 11:03:08 GMT-0500 (Eastern Standard Time),NA,50,group2,bg,certain,11,if2_hl,NA,none,NA,NA,NA,NA,NA,1606929200670,impossible,NA,52,19|0|70|11,Thank you!,70,Graduated College,Task 1: Please indicate how likely you think the shown events will occur.,English,5b0c690b444cef0001ca5904,131618,female,16,1606924988105,stimuli/img/group2/if2_hl.png,NA,NA,g,70.20941666666667,NA,b,0,NA,multiple_slider7
1262,NA,the green block falls and the blue block does not fall,Wed Dec 02 2020 11:03:08 GMT-0500 (Eastern Standard Time),NA,50,group2,NA,NA,1,if2_hl,NA,NA,NA,NA,NA,NA,NA,1606929200670,NA,NA,52,the green block falls and the blue block does not fall|,Thank you!,6,Graduated College,Task 2: Please describe to a critical friend as adequately as possible <br/>what happens with the blue and the green block in the picture.,English,5b0c690b444cef0001ca5904,47080,female,17,1606924988105,stimuli/img/group2/if2_hl.png,6,NA,NA,70.20941666666667,NA,NA,NA,NA,fridge_view7
1262,NA,NA,Wed Dec 02 2020 11:03:08 GMT-0500 (Eastern Standard Time),NA,50,NA,NA,NA,NA,blue,.,NA,grey,blue,blue,green,black,1606929200670,NA,The block is,52,blue,Thank you!,NA,Graduated College,What's the color of the block on the picture?,English,5b0c690b444cef0001ca5904,6711,female,7,1606924988105,stimuli/img/color_vision_blue.png,NA,yellow,NA,70.20941666666667,purple,NA,NA,red,color-vision3
1262,NA,33,Wed Dec 02 2020 11:03:08 GMT-0500 (Eastern Standard Time),NA,50,group2,bg,certain,49,if1_u-Lh,NA,none,NA,NA,NA,NA,NA,1606929200670,impossible,NA,52,33|0|18|49,Thank you!,18,Graduated College,Task 1: Please indicate how likely you think the shown events will occur.,English,5b0c690b444cef0001ca5904,71440,female,18,1606924988105,stimuli/img/group2/if1_u-Lh.png,NA,NA,g,70.20941666666667,NA,b,0,NA,multiple_slider8
1262,NA,the green block might fall,Wed Dec 02 2020 11:03:08 GMT-0500 (Eastern Standard Time),NA,50,group2,NA,NA,1,if1_u-Lh,NA,NA,NA,NA,NA,NA,NA,1606929200670,NA,NA,52,the green block might fall|,Thank you!,3,Graduated College,Task 2: Please describe to a critical friend as adequately as possible <br/>what happens with the blue and the green block in the picture.,English,5b0c690b444cef0001ca5904,137895,female,19,1606924988105,stimuli/img/group2/if1_u-Lh.png,3,NA,NA,70.20941666666667,NA,NA,NA,NA,fridge_view8
1262,NA,10,Wed Dec 02 2020 11:03:08 GMT-0500 (Eastern Standard Time),NA,50,group1,bg,certain,52,independent_ul,NA,none,NA,NA,NA,NA,NA,1606929200670,impossible,NA,52,10|16|22|52,Thank you!,22,Graduated College,Task 1: Please indicate how likely you think the shown events will occur.,English,5b0c690b444cef0001ca5904,66287,female,20,1606924988105,stimuli/img/group1/independent_ul.png,NA,NA,g,70.20941666666667,NA,b,16,NA,multiple_slider9
1262,NA,neither block falls,Wed Dec 02 2020 11:03:08 GMT-0500 (Eastern Standard Time),NA,50,group1,NA,NA,1,independent_ul,NA,NA,NA,NA,NA,NA,NA,1606929200670,NA,NA,52,neither block falls|,Thank you!,2,Graduated College,Task 2: Please describe to a critical friend as adequately as possible <br/>what happens with the blue and the green block in the picture.,English,5b0c690b444cef0001ca5904,11170,female,21,1606924988105,stimuli/img/group1/independent_ul.png,2,NA,NA,70.20941666666667,NA,NA,NA,NA,fridge_view9
1262,NA,NA,Wed Dec 02 2020 11:03:08 GMT-0500 (Eastern Standard Time),NA,50,NA,NA,NA,NA,yellow-red,.,NA,grey,yellow,blue,green,black,1606929200670,NA,The upper block is,52,yellow,Thank you!,NA,Graduated College,What's the color of the <b>upper</b> block on the picture?,English,5b0c690b444cef0001ca5904,6430,female,8,1606924988105,stimuli/img/color_vision_yellow_red.png,NA,yellow,NA,70.20941666666667,purple,NA,NA,red,color-vision4
1262,NA,0,Wed Dec 02 2020 11:03:08 GMT-0500 (Eastern Standard Time),NA,50,group2,bg,certain,100,if1_lh,NA,none,NA,NA,NA,NA,NA,1606929200670,impossible,NA,52,0|0|0|100,Thank you!,0,Graduated College,Task 1: Please indicate how likely you think the shown events will occur.,English,5b0c690b444cef0001ca5904,36895,female,22,1606924988105,stimuli/img/group2/if1_lh.png,NA,NA,g,70.20941666666667,NA,b,0,NA,multiple_slider10
1262,NA,neither block falls,Wed Dec 02 2020 11:03:08 GMT-0500 (Eastern Standard Time),NA,50,group2,NA,NA,1,if1_lh,NA,NA,NA,NA,NA,NA,NA,1606929200670,NA,NA,52,neither block falls|,Thank you!,2,Graduated College,Task 2: Please describe to a critical friend as adequately as possible <br/>what happens with the blue and the green block in the picture.,English,5b0c690b444cef0001ca5904,17062,female,23,1606924988105,stimuli/img/group2/if1_lh.png,2,NA,NA,70.20941666666667,NA,NA,NA,NA,fridge_view10
1262,NA,0,Wed Dec 02 2020 11:03:08 GMT-0500 (Eastern Standard Time),NA,50,group1,bg,certain,21,if2_u-Ll,NA,none,NA,NA,NA,NA,NA,1606929200670,impossible,NA,52,0|73|6|21,Thank you!,6,Graduated College,Task 1: Please indicate how likely you think the shown events will occur.,English,5b0c690b444cef0001ca5904,64222,female,24,1606924988105,stimuli/img/group1/if2_u-Ll.png,NA,NA,g,70.20941666666667,NA,b,73,NA,multiple_slider11
1262,NA,the blue block falls and the green block does not fall,Wed Dec 02 2020 11:03:08 GMT-0500 (Eastern Standard Time),NA,50,group1,NA,NA,1,if2_u-Ll,NA,NA,NA,NA,NA,NA,NA,1606929200670,NA,NA,52,the blue block falls and the green block does not fall|,Thank you!,6,Graduated College,Task 2: Please describe to a critical friend as adequately as possible <br/>what happens with the blue and the green block in the picture.,English,5b0c690b444cef0001ca5904,24259,female,25,1606924988105,stimuli/img/group1/if2_u-Ll.png,6,NA,NA,70.20941666666667,NA,NA,NA,NA,fridge_view11
1262,NA,NA,Wed Dec 02 2020 11:03:08 GMT-0500 (Eastern Standard Time),NA,50,NA,NA,NA,NA,blue-green,.,NA,grey,blue,blue,green,black,1606929200670,NA,The upper block is,52,blue,Thank you!,NA,Graduated College,What's the color of the <b>upper</b> block on the picture?,English,5b0c690b444cef0001ca5904,6716,female,9,1606924988105,stimuli/img/color_vision_blue_green.png,NA,yellow,NA,70.20941666666667,purple,NA,NA,red,color-vision5
1262,NA,0,Wed Dec 02 2020 11:03:08 GMT-0500 (Eastern Standard Time),NA,50,group2,bg,certain,0,independent_hh,NA,none,NA,NA,NA,NA,NA,1606929200670,impossible,NA,52,0|100|0|0,Thank you!,0,Graduated College,Task 1: Please indicate how likely you think the shown events will occur.,English,5b0c690b444cef0001ca5904,26699,female,26,1606924988105,stimuli/img/group2/independent_hh.png,NA,NA,g,70.20941666666667,NA,b,100,NA,multiple_slider12
1262,NA,the blue block falls and the green block does not fall,Wed Dec 02 2020 11:03:08 GMT-0500 (Eastern Standard Time),NA,50,group2,NA,NA,1,independent_hh,NA,NA,NA,NA,NA,NA,NA,1606929200670,NA,NA,52,the blue block falls and the green block does not fall|,Thank you!,6,Graduated College,Task 2: Please describe to a critical friend as adequately as possible <br/>what happens with the blue and the green block in the picture.,English,5b0c690b444cef0001ca5904,19900,female,27,1606924988105,stimuli/img/group2/independent_hh.png,6,NA,NA,70.20941666666667,NA,NA,NA,NA,fridge_view12
1261,NA,NA,Wed Dec 02 2020 18:17:43 GMT+0200 (South Africa Standard Time),NA,50,NA,NA,NA,NA,not-red-yellow,.,NA,both blocks fall,"the yellow block falls, but not the red","the yellow block falls, but not the red",none of the two blocks falls,"the red block falls, but not the yellow",1606928479819,NA,The icon represents the event that,25,the,NA,NA,Higher Degree,What event does this icon represent?,English and Afrikaans,5f354e9b80fd884dda24535b,6104,female,1,1606925863189,stimuli/img/icons/not-red-yellow.png,NA,NA,NA,43.6105,NA,NA,NA,NA,attention_check2
1261,NA,NA,Wed Dec 02 2020 18:17:43 GMT+0200 (South Africa Standard Time),NA,50,NA,NA,NA,NA,not-yellow-red,.,NA,none of the two blocks falls,"the red block falls, but not the yellow",both blocks fall,"the yellow block falls, but not the red","the red block falls, but not the yellow",1606928479819,NA,The icon represents the event that,25,the,NA,NA,Higher Degree,What event does this icon represent?,English and Afrikaans,5f354e9b80fd884dda24535b,4024,female,2,1606925863189,stimuli/img/icons/red-not-yellow.png,NA,NA,NA,43.6105,NA,NA,NA,NA,attention_check2
1261,NA,NA,Wed Dec 02 2020 18:17:43 GMT+0200 (South Africa Standard Time),NA,50,NA,NA,NA,NA,red-yellow,.,NA,both blocks fall,both blocks fall,"the red block falls, but not the yellow","the yellow block falls, but not the red",none of the two blocks falls,1606928479819,NA,The icon represents the event that,25,both,NA,NA,Higher Degree,What event does this icon represent?,English and Afrikaans,5f354e9b80fd884dda24535b,4809,female,3,1606925863189,stimuli/img/icons/red-yellow.png,NA,NA,NA,43.6105,NA,NA,NA,NA,attention_check2
1261,The sliders represent the beliefs of a person who <br/><b>thinks that red falls and tends to think that yellow falls as well.</b>,NA,Wed Dec 02 2020 18:17:43 GMT+0200 (South Africa Standard Time),NA,50,NA,NA,NA,NA,slider_choice_yes6,NA,NA,NA,yes,no,NA,yes,1606928479819,NA,NA,25,yes,NA,NA,Higher Degree,Please click on the button with the correct answer.,English and Afrikaans,5f354e9b80fd884dda24535b,47187,female,1,1606925863189,stimuli/img/slider-choices/red-probably-yellow.png,NA,NA,NA,43.6105,NA,NA,NA,NA,slider_choice_training
1261,The sliders represent the beliefs of a person who <br/><b>is very confident that either both or neither of the two blocks fall <br/>and neither is rated as more likely.</b>,NA,Wed Dec 02 2020 18:17:43 GMT+0200 (South Africa Standard Time),NA,50,NA,NA,NA,NA,slider_choice_no0,NA,NA,NA,no,no,NA,yes,1606928479819,NA,NA,25,yes,NA,NA,Higher Degree,Please click on the button with the correct answer.,English and Afrikaans,5f354e9b80fd884dda24535b,30612,female,2,1606925863189,stimuli/img/slider-choices/both-or-none-probably-both-not0.png,NA,NA,NA,43.6105,NA,NA,NA,NA,slider_choice_training
1261,The sliders represent the beliefs of a person who <br/><b>is pretty certain that the yellow block falls but not the red.</b>,NA,Wed Dec 02 2020 18:17:43 GMT+0200 (South Africa Standard Time),NA,50,NA,NA,NA,NA,slider_choice_yes3,NA,NA,NA,yes,no,NA,yes,1606928479819,NA,NA,25,yes,NA,NA,Higher Degree,Please click on the button with the correct answer.,English and Afrikaans,5f354e9b80fd884dda24535b,17712,female,3,1606925863189,stimuli/img/slider-choices/probably-yellow-but-not-red.png,NA,NA,NA,43.6105,NA,NA,NA,NA,slider_choice_training
1261,The sliders represent the beliefs of a person who <br/><b>thinks that yellow falls but probably not red.</b>,NA,Wed Dec 02 2020 18:17:43 GMT+0200 (South Africa Standard Time),NA,50,NA,NA,NA,NA,slider_choice_yes5,NA,NA,NA,yes,no,NA,yes,1606928479819,NA,NA,25,no,NA,NA,Higher Degree,Please click on the button with the correct answer.,English and Afrikaans,5f354e9b80fd884dda24535b,14943,female,4,1606925863189,stimuli/img/slider-choices/yellow-probably-not-red.png,NA,NA,NA,43.6105,NA,NA,NA,NA,slider_choice_training
1261,The sliders represent the beliefs of a person who <br/><b>thinks that either both or neither of the two blocks fall <br/>and neither is rated as more likely.</b>,NA,Wed Dec 02 2020 18:17:43 GMT+0200 (South Africa Standard Time),NA,50,NA,NA,NA,NA,slider_choice_yes2,NA,NA,NA,yes,no,NA,yes,1606928479819,NA,NA,25,yes,NA,NA,Higher Degree,Please click on the button with the correct answer.,English and Afrikaans,5f354e9b80fd884dda24535b,22367,female,5,1606925863189,stimuli/img/slider-choices/both-or-none-rather-none.png,NA,NA,NA,43.6105,NA,NA,NA,NA,slider_choice_training
1261,The sliders represent the beliefs of a person who <br/><b>is pretty certain that the yellow block falls but not the red.</b>,NA,Wed Dec 02 2020 18:17:43 GMT+0200 (South Africa Standard Time),NA,50,NA,NA,NA,NA,slider_choice_no1,NA,NA,NA,no,no,NA,yes,1606928479819,NA,NA,25,no,NA,NA,Higher Degree,Please click on the button with the correct answer.,English and Afrikaans,5f354e9b80fd884dda24535b,17658,female,6,1606925863189,stimuli/img/slider-choices/probably-red-but-not-yellow.png,NA,NA,NA,43.6105,NA,NA,NA,NA,slider_choice_training
1261,The sliders represent the beliefs of a person who <br/><b>thinks that yellow falls but is uncertain whether or not red falls.</b>,NA,Wed Dec 02 2020 18:17:43 GMT+0200 (South Africa Standard Time),NA,50,NA,NA,NA,NA,slider_choice_yes4,NA,NA,NA,yes,no,NA,yes,1606928479819,NA,NA,25,yes,NA,NA,Higher Degree,Please click on the button with the correct answer.,English and Afrikaans,5f354e9b80fd884dda24535b,18186,female,7,1606925863189,stimuli/img/slider-choices/yellow-maybe-red.png,NA,NA,NA,43.6105,NA,NA,NA,NA,slider_choice_training
1261,The sliders represent the beliefs of a person who <br/><b>thinks that either both blocks or neither of the two blocks fall.,NA,Wed Dec 02 2020 18:17:43 GMT+0200 (South Africa Standard Time),NA,50,NA,NA,NA,NA,slider_choice_yes1,NA,NA,NA,yes,no,NA,yes,1606928479819,NA,NA,25,yes,NA,NA,Higher Degree,Please click on the button with the correct answer.,English and Afrikaans,5f354e9b80fd884dda24535b,11857,female,8,1606925863189,stimuli/img/slider-choices/both-or-none.png,NA,NA,NA,43.6105,NA,NA,NA,NA,slider_choice_training
1261,The sliders represent the beliefs of a person who <br/><b>is very confident that yellow falls but is uncertain whether or not red falls.</b>,NA,Wed Dec 02 2020 18:17:43 GMT+0200 (South Africa Standard Time),NA,50,NA,NA,NA,NA,slider_choice_no2,NA,NA,NA,no,no,NA,yes,1606928479819,NA,NA,25,no,NA,NA,Higher Degree,Please click on the button with the correct answer.,English and Afrikaans,5f354e9b80fd884dda24535b,17170,female,9,1606925863189,stimuli/img/slider-choices/red-maybe-yellow.png,NA,NA,NA,43.6105,NA,NA,NA,NA,slider_choice_training
1261,The sliders represent the beliefs of a person who <br/><b>is <b>completely uncertain</b> whether the blocks fall.,NA,Wed Dec 02 2020 18:17:43 GMT+0200 (South Africa Standard Time),NA,50,NA,NA,NA,NA,slider_choice_yes0,NA,NA,NA,yes,no,NA,yes,1606928479819,NA,NA,25,yes,NA,NA,Higher Degree,Please click on the button with the correct answer.,English and Afrikaans,5f354e9b80fd884dda24535b,11093,female,10,1606925863189,stimuli/img/slider-choices/all-equal.png,NA,NA,NA,43.6105,NA,NA,NA,NA,slider_choice_training
1261,NA,18,Wed Dec 02 2020 18:17:43 GMT+0200 (South Africa Standard Time),NA,50,NA,ry,certain,50,ssw0,NA,none,NA,ry,NA,NA,NA,1606928479819,impossible,NA,25,18|0|32|50,NA,32,Higher Degree,Please indicate how likely you think the shown events will occur. Click on RUN to see!,English and Afrikaans,5f354e9b80fd884dda24535b,214166,female,1,1606925863189,NA,NA,NA,y,43.6105,NA,r,0,NA,animation_slider
1261,NA,61,Wed Dec 02 2020 18:17:43 GMT+0200 (South Africa Standard Time),NA,50,NA,ry,certain,34,ac2,NA,none,NA,ry,NA,NA,NA,1606928479819,impossible,NA,25,61|5|0|34,NA,0,Higher Degree,Please indicate how likely you think the shown events will occur. Click on RUN to see!,English and Afrikaans,5f354e9b80fd884dda24535b,92936,female,2,1606925863189,NA,NA,NA,y,43.6105,NA,r,5,NA,animation_slider
1261,NA,54,Wed Dec 02 2020 18:17:43 GMT+0200 (South Africa Standard Time),NA,50,NA,ry,certain,21,uncertain1,NA,none,NA,r,NA,NA,NA,1606928479819,impossible,NA,25,54|25|0|21,NA,0,Higher Degree,Please indicate how likely you think the shown events will occur. Click on RUN to see!,English and Afrikaans,5f354e9b80fd884dda24535b,74390,female,3,1606925863189,NA,NA,NA,y,43.6105,NA,r,25,NA,animation_slider
1261,NA,45,Wed Dec 02 2020 18:17:43 GMT+0200 (South Africa Standard Time),NA,50,NA,ry,certain,45,distance0,NA,none,NA,r,NA,NA,NA,1606928479819,impossible,NA,25,45|10|0|45,NA,0,Higher Degree,Please indicate how likely you think the shown events will occur. Click on RUN to see!,English and Afrikaans,5f354e9b80fd884dda24535b,81870,female,4,1606925863189,NA,NA,NA,y,43.6105,NA,r,10,NA,animation_slider
1261,NA,72,Wed Dec 02 2020 18:17:43 GMT+0200 (South Africa Standard Time),NA,50,NA,ry,certain,0,distance1,NA,none,NA,y,NA,NA,NA,1606928479819,impossible,NA,25,72|0|28|0,NA,28,Higher Degree,Please indicate how likely you think the shown events will occur. Click on RUN to see!,English and Afrikaans,5f354e9b80fd884dda24535b,40655,female,5,1606925863189,NA,NA,NA,y,43.6105,NA,r,0,NA,animation_slider
1261,NA,44,Wed Dec 02 2020 18:17:43 GMT+0200 (South Africa Standard Time),NA,50,NA,ry,certain,0,ac0,NA,none,NA,ry,NA,NA,NA,1606928479819,impossible,NA,25,44|56|0|0,NA,0,Higher Degree,Please indicate how likely you think the shown events will occur. Click on RUN to see!,English and Afrikaans,5f354e9b80fd884dda24535b,40320,female,6,1606925863189,NA,NA,NA,y,43.6105,NA,r,56,NA,animation_slider
1261,NA,23,Wed Dec 02 2020 18:17:43 GMT+0200 (South Africa Standard Time),NA,50,NA,ry,certain,0,uncertain3,NA,none,NA,y,NA,NA,NA,1606928479819,impossible,NA,25,23|0|77|0,NA,77,Higher Degree,Please indicate how likely you think the shown events will occur. Click on RUN to see!,English and Afrikaans,5f354e9b80fd884dda24535b,50933,female,7,1606925863189,NA,NA,NA,y,43.6105,NA,r,0,NA,animation_slider
1261,NA,70,Wed Dec 02 2020 18:17:43 GMT+0200 (South Africa Standard Time),NA,50,NA,ry,certain,0,ind1,NA,none,NA,ry,NA,NA,NA,1606928479819,impossible,NA,25,70|30|0|0,NA,0,Higher Degree,Please indicate how likely you think the shown events will occur. Click on RUN to see!,English and Afrikaans,5f354e9b80fd884dda24535b,53294,female,8,1606925863189,NA,NA,NA,y,43.6105,NA,r,30,NA,animation_slider
1261,NA,68,Wed Dec 02 2020 18:17:43 GMT+0200 (South Africa Standard Time),NA,50,NA,ry,certain,32,ac3,NA,none,NA,none,NA,NA,NA,1606928479819,impossible,NA,25,68|0|0|32,NA,0,Higher Degree,Please indicate how likely you think the shown events will occur. Click on RUN to see!,English and Afrikaans,5f354e9b80fd884dda24535b,54093,female,9,1606925863189,NA,NA,NA,y,43.6105,NA,r,0,NA,animation_slider
1261,NA,32,Wed Dec 02 2020 18:17:43 GMT+0200 (South Africa Standard Time),NA,50,NA,ry,certain,0,uncertain2,NA,none,NA,r,NA,NA,NA,1606928479819,impossible,NA,25,32|68|0|0,NA,0,Higher Degree,Please indicate how likely you think the shown events will occur. Click on RUN to see!,English and Afrikaans,5f354e9b80fd884dda24535b,48651,female,10,1606925863189,NA,NA,NA,y,43.6105,NA,r,68,NA,animation_slider
1261,NA,0,Wed Dec 02 2020 18:17:43 GMT+0200 (South Africa Standard Time),NA,50,NA,ry,certain,76,ind0,NA,none,NA,r,NA,NA,NA,1606928479819,impossible,NA,25,0|24|0|76,NA,0,Higher Degree,Please indicate how likely you think the shown events will occur. Click on RUN to see!,English and Afrikaans,5f354e9b80fd884dda24535b,46662,female,11,1606925863189,NA,NA,NA,y,43.6105,NA,r,24,NA,animation_slider
1261,NA,50,Wed Dec 02 2020 18:17:43 GMT+0200 (South Africa Standard Time),NA,50,NA,ry,certain,0,ac1,NA,none,NA,y,NA,NA,NA,1606928479819,impossible,NA,25,50|0|50|0,NA,50,Higher Degree,Please indicate how likely you think the shown events will occur. Click on RUN to see!,English and Afrikaans,5f354e9b80fd884dda24535b,42576,female,12,1606925863189,NA,NA,NA,y,43.6105,NA,r,0,NA,animation_slider
1261,NA,50,Wed Dec 02 2020 18:17:43 GMT+0200 (South Africa Standard Time),NA,50,NA,ry,certain,50,uncertain0,NA,none,NA,y,NA,NA,NA,1606928479819,impossible,NA,25,50|0|0|50,NA,0,Higher Degree,Please indicate how likely you think the shown events will occur. Click on RUN to see!,English and Afrikaans,5f354e9b80fd884dda24535b,36401,female,13,1606925863189,NA,NA,NA,y,43.6105,NA,r,0,NA,animation_slider
1261,NA,25,Wed Dec 02 2020 18:17:43 GMT+0200 (South Africa Standard Time),NA,50,NA,ry,certain,25,ssw1,NA,none,NA,none,NA,NA,NA,1606928479819,impossible,NA,25,25|25|25|25,NA,25,Higher Degree,Please indicate how likely you think the shown events will occur. Click on RUN to see!,English and Afrikaans,5f354e9b80fd884dda24535b,56195,female,14,1606925863189,NA,NA,NA,y,43.6105,NA,r,25,NA,animation_slider
1261,NA,both blocks fall,Wed Dec 02 2020 18:17:43 GMT+0200 (South Africa Standard Time),NA,50,group2,NA,NA,1,ind2,NA,NA,NA,NA,NA,NA,NA,1606928479819,NA,NA,25,both blocks fall|,NA,2,Higher Degree,TRY OUT EXAMPLE &mdash;Task 2: Please describe to a critical friend as adequately as possible <br/>what happens with the blue and the green block in the picture.,English and Afrikaans,5f354e9b80fd884dda24535b,58960,female,1,1606925863189,stimuli/img/train_slider_fridge/ind2_test_colors.jpg,2,NA,NA,43.6105,NA,NA,NA,NA,fridge_train
1261,NA,17,Wed Dec 02 2020 18:17:43 GMT+0200 (South Africa Standard Time),NA,50,group1,bg,certain,51,if2_ll,NA,none,NA,NA,NA,NA,NA,1606928479819,impossible,NA,25,17|16|16|51,NA,16,Higher Degree,Task 1: Please indicate how likely you think the shown events will occur.,English and Afrikaans,5f354e9b80fd884dda24535b,108717,female,2,1606925863189,stimuli/img/group1/if2_ll.png,NA,NA,g,43.6105,NA,b,16,NA,multiple_slider0
1261,NA,neither block falls,Wed Dec 02 2020 18:17:43 GMT+0200 (South Africa Standard Time),NA,50,group1,NA,NA,8,if2_ll,NA,NA,NA,NA,NA,NA,NA,1606928479819,NA,NA,25,neither block falls|It is most likely that neither blocks fall,NA,2,Higher Degree,Task 2: Please describe to a critical friend as adequately as possible <br/>what happens with the blue and the green block in the picture.,English and Afrikaans,5f354e9b80fd884dda24535b,92155,female,3,1606925863189,stimuli/img/group1/if2_ll.png,2,NA,NA,43.6105,NA,NA,It is most likely that neither blocks fall,NA,fridge_view0
1261,NA,50,Wed Dec 02 2020 18:17:43 GMT+0200 (South Africa Standard Time),NA,50,group1,bg,certain,50,if1_u-Lh,NA,none,NA,NA,NA,NA,NA,1606928479819,impossible,NA,25,50|0|0|50,NA,0,Higher Degree,Task 1: Please indicate how likely you think the shown events will occur.,English and Afrikaans,5f354e9b80fd884dda24535b,46842,female,4,1606925863189,stimuli/img/group1/if1_u-Lh.png,NA,NA,g,43.6105,NA,b,0,NA,multiple_slider1
1261,NA,the blue block and the green block fall,Wed Dec 02 2020 18:17:43 GMT+0200 (South Africa Standard Time),NA,50,group1,NA,NA,12,if1_u-Lh,NA,NA,NA,NA,NA,NA,NA,1606928479819,NA,NA,25,the blue block and the green block fall|The blue block might fall and cause the green block to fall,NA,4,Higher Degree,Task 2: Please describe to a critical friend as adequately as possible <br/>what happens with the blue and the green block in the picture.,English and Afrikaans,5f354e9b80fd884dda24535b,84889,female,5,1606925863189,stimuli/img/group1/if1_u-Lh.png,4,NA,NA,43.6105,NA,NA,The blue block might fall and cause the green block to fall,NA,fridge_view1
1261,NA,NA,Wed Dec 02 2020 18:17:43 GMT+0200 (South Africa Standard Time),NA,50,NA,NA,NA,NA,green,.,NA,grey,green,blue,green,black,1606928479819,NA,The block is,25,green,NA,NA,Higher Degree,What's the color of the block on the picture?,English and Afrikaans,5f354e9b80fd884dda24535b,6015,female,4,1606925863189,stimuli/img/color_vision_green.png,NA,yellow,NA,43.6105,purple,NA,NA,red,color-vision0
1261,NA,62,Wed Dec 02 2020 18:17:43 GMT+0200 (South Africa Standard Time),NA,50,group1,bg,certain,0,independent_hl,NA,none,NA,NA,NA,NA,NA,1606928479819,impossible,NA,25,62|38|0|0,NA,0,Higher Degree,Task 1: Please indicate how likely you think the shown events will occur.,English and Afrikaans,5f354e9b80fd884dda24535b,28659,female,6,1606925863189,stimuli/img/group1/independent_hl.png,NA,NA,g,43.6105,NA,b,38,NA,multiple_slider2
1261,NA,both blocks fall,Wed Dec 02 2020 18:17:43 GMT+0200 (South Africa Standard Time),NA,50,group1,NA,NA,1,independent_hl,NA,NA,NA,NA,NA,NA,NA,1606928479819,NA,NA,25,both blocks fall|,NA,2,Higher Degree,Task 2: Please describe to a critical friend as adequately as possible <br/>what happens with the blue and the green block in the picture.,English and Afrikaans,5f354e9b80fd884dda24535b,7638,female,7,1606925863189,stimuli/img/group1/independent_hl.png,2,NA,NA,43.6105,NA,NA,NA,NA,fridge_view2
1261,NA,100,Wed Dec 02 2020 18:17:43 GMT+0200 (South Africa Standard Time),NA,50,group2,bg,certain,0,if1_hh,NA,none,NA,NA,NA,NA,NA,1606928479819,impossible,NA,25,100|0|0|0,NA,0,Higher Degree,Task 1: Please indicate how likely you think the shown events will occur.,English and Afrikaans,5f354e9b80fd884dda24535b,14765,female,8,1606925863189,stimuli/img/group2/if1_hh.png,NA,NA,g,43.6105,NA,b,0,NA,multiple_slider3
1261,NA,both blocks fall,Wed Dec 02 2020 18:17:43 GMT+0200 (South Africa Standard Time),NA,50,group2,NA,NA,1,if1_hh,NA,NA,NA,NA,NA,NA,NA,1606928479819,NA,NA,25,both blocks fall|,NA,2,Higher Degree,Task 2: Please describe to a critical friend as adequately as possible <br/>what happens with the blue and the green block in the picture.,English and Afrikaans,5f354e9b80fd884dda24535b,6371,female,9,1606925863189,stimuli/img/group2/if1_hh.png,2,NA,NA,43.6105,NA,NA,NA,NA,fridge_view3
1261,NA,NA,Wed Dec 02 2020 18:17:43 GMT+0200 (South Africa Standard Time),NA,50,NA,NA,NA,NA,yellow-red,.,NA,grey,yellow,blue,green,black,1606928479819,NA,The upper block is,25,yellow,NA,NA,Higher Degree,What's the color of the <b>upper</b> block on the picture?,English and Afrikaans,5f354e9b80fd884dda24535b,8913,female,5,1606925863189,stimuli/img/color_vision_yellow_red.png,NA,yellow,NA,43.6105,purple,NA,NA,red,color-vision1
1261,NA,100,Wed Dec 02 2020 18:17:43 GMT+0200 (South Africa Standard Time),NA,50,group1,bg,certain,0,independent_hh,NA,none,NA,NA,NA,NA,NA,1606928479819,impossible,NA,25,100|0|0|0,NA,0,Higher Degree,Task 1: Please indicate how likely you think the shown events will occur.,English and Afrikaans,5f354e9b80fd884dda24535b,19767,female,10,1606925863189,stimuli/img/group1/independent_hh.png,NA,NA,g,43.6105,NA,b,0,NA,multiple_slider4
1261,NA,both blocks fall,Wed Dec 02 2020 18:17:43 GMT+0200 (South Africa Standard Time),NA,50,group1,NA,NA,1,independent_hh,NA,NA,NA,NA,NA,NA,NA,1606928479819,NA,NA,25,both blocks fall|,NA,2,Higher Degree,Task 2: Please describe to a critical friend as adequately as possible <br/>what happens with the blue and the green block in the picture.,English and Afrikaans,5f354e9b80fd884dda24535b,7349,female,11,1606925863189,stimuli/img/group1/independent_hh.png,2,NA,NA,43.6105,NA,NA,NA,NA,fridge_view4
1261,NA,50,Wed Dec 02 2020 18:17:43 GMT+0200 (South Africa Standard Time),NA,50,group1,bg,certain,25,if2_u-Ll,NA,none,NA,NA,NA,NA,NA,1606928479819,impossible,NA,25,50|0|25|25,NA,25,Higher Degree,Task 1: Please indicate how likely you think the shown events will occur.,English and Afrikaans,5f354e9b80fd884dda24535b,71351,female,12,1606925863189,stimuli/img/group1/if2_u-Ll.png,NA,NA,g,43.6105,NA,b,0,NA,multiple_slider5
1261,NA,the green block falls if the blue block falls,Wed Dec 02 2020 18:17:43 GMT+0200 (South Africa Standard Time),NA,50,group1,NA,NA,1,if2_u-Ll,NA,NA,NA,NA,NA,NA,NA,1606928479819,NA,NA,25,the green block falls if the blue block falls|,NA,5,Higher Degree,Task 2: Please describe to a critical friend as adequately as possible <br/>what happens with the blue and the green block in the picture.,English and Afrikaans,5f354e9b80fd884dda24535b,13516,female,13,1606925863189,stimuli/img/group1/if2_u-Ll.png,5,NA,NA,43.6105,NA,NA,NA,NA,fridge_view5
1261,NA,NA,Wed Dec 02 2020 18:17:43 GMT+0200 (South Africa Standard Time),NA,50,NA,NA,NA,NA,red-yellow,.,NA,grey,red,blue,green,black,1606928479819,NA,The upper block is,25,red,NA,NA,Higher Degree,What's the color of the <b>upper</b> block on the picture?,English and Afrikaans,5f354e9b80fd884dda24535b,4896,female,6,1606925863189,stimuli/img/color_vision_red_yellow.png,NA,yellow,NA,43.6105,purple,NA,NA,red,color-vision2
1261,NA,70,Wed Dec 02 2020 18:17:43 GMT+0200 (South Africa Standard Time),NA,50,group2,bg,certain,0,independent_uh,NA,none,NA,NA,NA,NA,NA,1606928479819,impossible,NA,25,70|30|0|0,NA,0,Higher Degree,Task 1: Please indicate how likely you think the shown events will occur.,English and Afrikaans,5f354e9b80fd884dda24535b,38621,female,14,1606925863189,stimuli/img/group2/independent_uh.png,NA,NA,g,43.6105,NA,b,30,NA,multiple_slider6
1261,NA,the green block and the blue block fall,Wed Dec 02 2020 18:17:43 GMT+0200 (South Africa Standard Time),NA,50,group2,NA,NA,1,independent_uh,NA,NA,NA,NA,NA,NA,NA,1606928479819,NA,NA,25,the green block and the blue block fall|,NA,4,Higher Degree,Task 2: Please describe to a critical friend as adequately as possible <br/>what happens with the blue and the green block in the picture.,English and Afrikaans,5f354e9b80fd884dda24535b,18586,female,15,1606925863189,stimuli/img/group2/independent_uh.png,4,NA,NA,43.6105,NA,NA,NA,NA,fridge_view6
1261,NA,0,Wed Dec 02 2020 18:17:43 GMT+0200 (South Africa Standard Time),NA,50,group2,bg,certain,100,if1_lh,NA,none,NA,NA,NA,NA,NA,1606928479819,impossible,NA,25,0|0|0|100,NA,0,Higher Degree,Task 1: Please indicate how likely you think the shown events will occur.,English and Afrikaans,5f354e9b80fd884dda24535b,34846,female,16,1606925863189,stimuli/img/group2/if1_lh.png,NA,NA,g,43.6105,NA,b,0,NA,multiple_slider7
1261,NA,neither the green block nor the blue block fall,Wed Dec 02 2020 18:17:43 GMT+0200 (South Africa Standard Time),NA,50,group2,NA,NA,1,if1_lh,NA,NA,NA,NA,NA,NA,NA,1606928479819,NA,NA,25,neither the green block nor the blue block fall|,NA,5,Higher Degree,Task 2: Please describe to a critical friend as adequately as possible <br/>what happens with the blue and the green block in the picture.,English and Afrikaans,5f354e9b80fd884dda24535b,17140,female,17,1606925863189,stimuli/img/group2/if1_lh.png,5,NA,NA,43.6105,NA,NA,NA,NA,fridge_view7
1261,NA,NA,Wed Dec 02 2020 18:17:43 GMT+0200 (South Africa Standard Time),NA,50,NA,NA,NA,NA,green-blue,.,NA,grey,green,blue,green,black,1606928479819,NA,The upper block is,25,green,NA,NA,Higher Degree,What's the color of the <b>upper</b> block on the picture?,English and Afrikaans,5f354e9b80fd884dda24535b,4095,female,7,1606925863189,stimuli/img/color_vision_green_blue.png,NA,yellow,NA,43.6105,purple,NA,NA,red,color-vision3
1261,NA,56,Wed Dec 02 2020 18:17:43 GMT+0200 (South Africa Standard Time),NA,50,group2,bg,certain,38,if2_ul,NA,none,NA,NA,NA,NA,NA,1606928479819,impossible,NA,25,56|6|0|38,NA,0,Higher Degree,Task 1: Please indicate how likely you think the shown events will occur.,English and Afrikaans,5f354e9b80fd884dda24535b,45151,female,18,1606925863189,stimuli/img/group2/if2_ul.png,NA,NA,g,43.6105,NA,b,6,NA,multiple_slider8
1261,NA,the blue block falls if the green block falls,Wed Dec 02 2020 18:17:43 GMT+0200 (South Africa Standard Time),NA,50,group2,NA,NA,1,if2_ul,NA,NA,NA,NA,NA,NA,NA,1606928479819,NA,NA,25,the blue block falls if the green block falls|,NA,5,Higher Degree,Task 2: Please describe to a critical friend as adequately as possible <br/>what happens with the blue and the green block in the picture.,English and Afrikaans,5f354e9b80fd884dda24535b,11904,female,19,1606925863189,stimuli/img/group2/if2_ul.png,5,NA,NA,43.6105,NA,NA,NA,NA,fridge_view8
1261,NA,50,Wed Dec 02 2020 18:17:43 GMT+0200 (South Africa Standard Time),NA,50,group2,bg,certain,0,independent_ul,NA,none,NA,NA,NA,NA,NA,1606928479819,impossible,NA,25,50|0|50|0,NA,50,Higher Degree,Task 1: Please indicate how likely you think the shown events will occur.,English and Afrikaans,5f354e9b80fd884dda24535b,53589,female,20,1606925863189,stimuli/img/group2/independent_ul.png,NA,NA,g,43.6105,NA,b,0,NA,multiple_slider9
1261,NA,the blue block might fall,Wed Dec 02 2020 18:17:43 GMT+0200 (South Africa Standard Time),NA,50,group2,NA,NA,14,independent_ul,NA,NA,NA,NA,NA,NA,NA,1606928479819,NA,NA,25,the blue block might fall|The green block will most likely fall but the blue block might not fall,NA,3,Higher Degree,Task 2: Please describe to a critical friend as adequately as possible <br/>what happens with the blue and the green block in the picture.,English and Afrikaans,5f354e9b80fd884dda24535b,44167,female,21,1606925863189,stimuli/img/group2/independent_ul.png,3,NA,NA,43.6105,NA,NA,The green block will most likely fall but the blue block might not fall,NA,fridge_view9
1261,NA,NA,Wed Dec 02 2020 18:17:43 GMT+0200 (South Africa Standard Time),NA,50,NA,NA,NA,NA,blue-green,.,NA,grey,blue,blue,green,black,1606928479819,NA,The upper block is,25,blue,NA,NA,Higher Degree,What's the color of the <b>upper</b> block on the picture?,English and Afrikaans,5f354e9b80fd884dda24535b,4530,female,8,1606925863189,stimuli/img/color_vision_blue_green.png,NA,yellow,NA,43.6105,purple,NA,NA,red,color-vision4
1261,NA,100,Wed Dec 02 2020 18:17:43 GMT+0200 (South Africa Standard Time),NA,50,group1,bg,certain,0,if2_hl,NA,none,NA,NA,NA,NA,NA,1606928479819,impossible,NA,25,100|0|0|0,NA,0,Higher Degree,Task 1: Please indicate how likely you think the shown events will occur.,English and Afrikaans,5f354e9b80fd884dda24535b,15152,female,22,1606925863189,stimuli/img/group1/if2_hl.png,NA,NA,g,43.6105,NA,b,0,NA,multiple_slider10
1261,NA,the green block falls if the blue block falls,Wed Dec 02 2020 18:17:43 GMT+0200 (South Africa Standard Time),NA,50,group1,NA,NA,1,if2_hl,NA,NA,NA,NA,NA,NA,NA,1606928479819,NA,NA,25,the green block falls if the blue block falls|,NA,5,Higher Degree,Task 2: Please describe to a critical friend as adequately as possible <br/>what happens with the blue and the green block in the picture.,English and Afrikaans,5f354e9b80fd884dda24535b,21083,female,23,1606925863189,stimuli/img/group1/if2_hl.png,5,NA,NA,43.6105,NA,NA,NA,NA,fridge_view10
1261,NA,90,Wed Dec 02 2020 18:17:43 GMT+0200 (South Africa Standard Time),NA,50,group2,bg,certain,10,if1_uh,NA,none,NA,NA,NA,NA,NA,1606928479819,impossible,NA,25,90|0|0|10,NA,0,Higher Degree,Task 1: Please indicate how likely you think the shown events will occur.,English and Afrikaans,5f354e9b80fd884dda24535b,43174,female,24,1606925863189,stimuli/img/group2/if1_uh.png,NA,NA,g,43.6105,NA,b,0,NA,multiple_slider11
1261,NA,the blue block falls if the green block falls,Wed Dec 02 2020 18:17:43 GMT+0200 (South Africa Standard Time),NA,50,group2,NA,NA,1,if1_uh,NA,NA,NA,NA,NA,NA,NA,1606928479819,NA,NA,25,the blue block falls if the green block falls|,NA,5,Higher Degree,Task 2: Please describe to a critical friend as adequately as possible <br/>what happens with the blue and the green block in the picture.,English and Afrikaans,5f354e9b80fd884dda24535b,9322,female,25,1606925863189,stimuli/img/group2/if1_uh.png,5,NA,NA,43.6105,NA,NA,NA,NA,fridge_view11
1261,NA,NA,Wed Dec 02 2020 18:17:43 GMT+0200 (South Africa Standard Time),NA,50,NA,NA,NA,NA,blue,.,NA,grey,blue,blue,green,black,1606928479819,NA,The block is,25,blue,NA,NA,Higher Degree,What's the color of the block on the picture?,English and Afrikaans,5f354e9b80fd884dda24535b,3984,female,9,1606925863189,stimuli/img/color_vision_blue.png,NA,yellow,NA,43.6105,purple,NA,NA,red,color-vision5
1261,NA,0,Wed Dec 02 2020 18:17:43 GMT+0200 (South Africa Standard Time),NA,50,group2,bg,certain,50,independent_ll,NA,none,NA,NA,NA,NA,NA,1606928479819,impossible,NA,25,0|50|0|50,NA,0,Higher Degree,Task 1: Please indicate how likely you think the shown events will occur.,English and Afrikaans,5f354e9b80fd884dda24535b,30024,female,26,1606925863189,stimuli/img/group2/independent_ll.png,NA,NA,g,43.6105,NA,b,50,NA,multiple_slider12
1261,NA,the blue block might fall,Wed Dec 02 2020 18:17:43 GMT+0200 (South Africa Standard Time),NA,50,group2,NA,NA,1,independent_ll,NA,NA,NA,NA,NA,NA,NA,1606928479819,NA,NA,25,the blue block might fall|,NA,3,Higher Degree,Task 2: Please describe to a critical friend as adequately as possible <br/>what happens with the blue and the green block in the picture.,English and Afrikaans,5f354e9b80fd884dda24535b,8629,female,27,1606925863189,stimuli/img/group2/independent_ll.png,3,NA,NA,43.6105,NA,NA,NA,NA,fridge_view12
1260,NA,NA,Wed Dec 02 2020 09:10:40 GMT-0700 (Mountain Standard Time),NA,50,NA,NA,NA,NA,not-red-yellow,.,NA,both blocks fall,"the yellow block falls, but not the red","the yellow block falls, but not the red",none of the two blocks falls,"the red block falls, but not the yellow",1606928122945,NA,The icon represents the event that,50,the,NA,NA,Higher Degree,What event does this icon represent?,English,5fb01a5f4ab51d370112332c,14900,male,1,1606925440854,stimuli/img/icons/not-red-yellow.png,NA,NA,NA,44.70151666666667,NA,NA,NA,NA,attention_check2
1260,NA,NA,Wed Dec 02 2020 09:10:40 GMT-0700 (Mountain Standard Time),NA,50,NA,NA,NA,NA,not-yellow-red,.,NA,none of the two blocks falls,"the red block falls, but not the yellow",both blocks fall,"the yellow block falls, but not the red","the red block falls, but not the yellow",1606928122945,NA,The icon represents the event that,50,the,NA,NA,Higher Degree,What event does this icon represent?,English,5fb01a5f4ab51d370112332c,7103,male,2,1606925440854,stimuli/img/icons/red-not-yellow.png,NA,NA,NA,44.70151666666667,NA,NA,NA,NA,attention_check2
1260,NA,NA,Wed Dec 02 2020 09:10:40 GMT-0700 (Mountain Standard Time),NA,50,NA,NA,NA,NA,red-yellow,.,NA,both blocks fall,both blocks fall,"the red block falls, but not the yellow","the yellow block falls, but not the red",none of the two blocks falls,1606928122945,NA,The icon represents the event that,50,both,NA,NA,Higher Degree,What event does this icon represent?,English,5fb01a5f4ab51d370112332c,234205,male,3,1606925440854,stimuli/img/icons/red-yellow.png,NA,NA,NA,44.70151666666667,NA,NA,NA,NA,attention_check2
1260,The sliders represent the beliefs of a person who <br/><b>thinks that red falls but probably not yellow.</b>,NA,Wed Dec 02 2020 09:10:40 GMT-0700 (Mountain Standard Time),NA,50,NA,NA,NA,NA,slider_choice_yes5,NA,NA,NA,yes,no,NA,yes,1606928122945,NA,NA,50,no,NA,NA,Higher Degree,Please click on the button with the correct answer.,English,5fb01a5f4ab51d370112332c,177303,male,1,1606925440854,stimuli/img/slider-choices/red-probably-not-yellow.png,NA,NA,NA,44.70151666666667,NA,NA,NA,NA,slider_choice_training
1260,The sliders represent the beliefs of a person who <br/><b>is very confident that either both or neither of the two blocks fall <br/>and both is rated as more likely.</b>,NA,Wed Dec 02 2020 09:10:40 GMT-0700 (Mountain Standard Time),NA,50,NA,NA,NA,NA,slider_choice_no0,NA,NA,NA,no,no,NA,yes,1606928122945,NA,NA,50,yes,NA,NA,Higher Degree,Please click on the button with the correct answer.,English,5fb01a5f4ab51d370112332c,13380,male,2,1606925440854,stimuli/img/slider-choices/both-or-none-rather-none-not0.png,NA,NA,NA,44.70151666666667,NA,NA,NA,NA,slider_choice_training
1260,The sliders represent the beliefs of a person who <br/><b>thinks that yellow falls and tends to think that red falls as well.</b>,NA,Wed Dec 02 2020 09:10:40 GMT-0700 (Mountain Standard Time),NA,50,NA,NA,NA,NA,slider_choice_yes6,NA,NA,NA,yes,no,NA,yes,1606928122945,NA,NA,50,no,NA,NA,Higher Degree,Please click on the button with the correct answer.,English,5fb01a5f4ab51d370112332c,4184,male,3,1606925440854,stimuli/img/slider-choices/yellow-probably-red.png,NA,NA,NA,44.70151666666667,NA,NA,NA,NA,slider_choice_training
1260,The sliders represent the beliefs of a person who <br/><b>is pretty certain that the yellow block falls but not the red.</b>,NA,Wed Dec 02 2020 09:10:40 GMT-0700 (Mountain Standard Time),NA,50,NA,NA,NA,NA,slider_choice_yes3,NA,NA,NA,yes,no,NA,yes,1606928122945,NA,NA,50,yes,NA,NA,Higher Degree,Please click on the button with the correct answer.,English,5fb01a5f4ab51d370112332c,8513,male,4,1606925440854,stimuli/img/slider-choices/probably-yellow-but-not-red.png,NA,NA,NA,44.70151666666667,NA,NA,NA,NA,slider_choice_training
1260,The sliders represent the beliefs of a person who <br/><b>is <b>completely uncertain</b> whether the blocks fall.,NA,Wed Dec 02 2020 09:10:40 GMT-0700 (Mountain Standard Time),NA,50,NA,NA,NA,NA,slider_choice_yes0,NA,NA,NA,yes,no,NA,yes,1606928122945,NA,NA,50,yes,NA,NA,Higher Degree,Please click on the button with the correct answer.,English,5fb01a5f4ab51d370112332c,7654,male,5,1606925440854,stimuli/img/slider-choices/all-equal.png,NA,NA,NA,44.70151666666667,NA,NA,NA,NA,slider_choice_training
1260,The sliders represent the beliefs of a person who <br/><b>is pretty certain that the yellow block falls but not the red.</b>,NA,Wed Dec 02 2020 09:10:40 GMT-0700 (Mountain Standard Time),NA,50,NA,NA,NA,NA,slider_choice_no1,NA,NA,NA,no,no,NA,yes,1606928122945,NA,NA,50,no,NA,NA,Higher Degree,Please click on the button with the correct answer.,English,5fb01a5f4ab51d370112332c,5650,male,6,1606925440854,stimuli/img/slider-choices/probably-red-but-not-yellow.png,NA,NA,NA,44.70151666666667,NA,NA,NA,NA,slider_choice_training
1260,The sliders represent the beliefs of a person who <br/><b>thinks that either both blocks or neither of the two blocks fall.,NA,Wed Dec 02 2020 09:10:40 GMT-0700 (Mountain Standard Time),NA,50,NA,NA,NA,NA,slider_choice_yes1,NA,NA,NA,yes,no,NA,yes,1606928122945,NA,NA,50,yes,NA,NA,Higher Degree,Please click on the button with the correct answer.,English,5fb01a5f4ab51d370112332c,8148,male,7,1606925440854,stimuli/img/slider-choices/both-or-none.png,NA,NA,NA,44.70151666666667,NA,NA,NA,NA,slider_choice_training
1260,The sliders represent the beliefs of a person who <br/><b>thinks that yellow falls but is uncertain whether or not red falls.</b>,NA,Wed Dec 02 2020 09:10:40 GMT-0700 (Mountain Standard Time),NA,50,NA,NA,NA,NA,slider_choice_yes4,NA,NA,NA,yes,no,NA,yes,1606928122945,NA,NA,50,yes,NA,NA,Higher Degree,Please click on the button with the correct answer.,English,5fb01a5f4ab51d370112332c,7261,male,8,1606925440854,stimuli/img/slider-choices/yellow-maybe-red.png,NA,NA,NA,44.70151666666667,NA,NA,NA,NA,slider_choice_training
1260,The sliders represent the beliefs of a person who <br/><b>is very confident that yellow falls but is uncertain whether or not red falls.</b>,NA,Wed Dec 02 2020 09:10:40 GMT-0700 (Mountain Standard Time),NA,50,NA,NA,NA,NA,slider_choice_no2,NA,NA,NA,no,no,NA,yes,1606928122945,NA,NA,50,no,NA,NA,Higher Degree,Please click on the button with the correct answer.,English,5fb01a5f4ab51d370112332c,4637,male,9,1606925440854,stimuli/img/slider-choices/red-maybe-yellow.png,NA,NA,NA,44.70151666666667,NA,NA,NA,NA,slider_choice_training
1260,The sliders represent the beliefs of a person who <br/><b>thinks that either both or neither of the two blocks fall <br/>and both is rated as more likely.</b>,NA,Wed Dec 02 2020 09:10:40 GMT-0700 (Mountain Standard Time),NA,50,NA,NA,NA,NA,slider_choice_yes2,NA,NA,NA,yes,no,NA,yes,1606928122945,NA,NA,50,no,NA,NA,Higher Degree,Please click on the button with the correct answer.,English,5fb01a5f4ab51d370112332c,3195,male,10,1606925440854,stimuli/img/slider-choices/both-or-none-probably-both.png,NA,NA,NA,44.70151666666667,NA,NA,NA,NA,slider_choice_training
1260,NA,50,Wed Dec 02 2020 09:10:40 GMT-0700 (Mountain Standard Time),NA,50,NA,ry,certain,9,ssw0,NA,none,NA,ry,NA,NA,NA,1606928122945,impossible,NA,50,50|29|12|9,NA,12,Higher Degree,Please indicate how likely you think the shown events will occur. Click on RUN to see!,English,5fb01a5f4ab51d370112332c,125790,male,1,1606925440854,NA,NA,NA,y,44.70151666666667,NA,r,29,NA,animation_slider
1260,NA,27,Wed Dec 02 2020 09:10:40 GMT-0700 (Mountain Standard Time),NA,50,NA,ry,certain,21,ac0,NA,none,NA,ry,NA,NA,NA,1606928122945,impossible,NA,50,27|24|28|21,NA,28,Higher Degree,Please indicate how likely you think the shown events will occur. Click on RUN to see!,English,5fb01a5f4ab51d370112332c,25245,male,2,1606925440854,NA,NA,NA,y,44.70151666666667,NA,r,24,NA,animation_slider
1260,NA,7,Wed Dec 02 2020 09:10:40 GMT-0700 (Mountain Standard Time),NA,50,NA,ry,certain,5,uncertain3,NA,none,NA,y,NA,NA,NA,1606928122945,impossible,NA,50,7|45|43|5,NA,43,Higher Degree,Please indicate how likely you think the shown events will occur. Click on RUN to see!,English,5fb01a5f4ab51d370112332c,19767,male,3,1606925440854,NA,NA,NA,y,44.70151666666667,NA,r,45,NA,animation_slider
1260,NA,6,Wed Dec 02 2020 09:10:40 GMT-0700 (Mountain Standard Time),NA,50,NA,ry,certain,44,distance1,NA,none,NA,y,NA,NA,NA,1606928122945,impossible,NA,50,6|6|44|44,NA,44,Higher Degree,Please indicate how likely you think the shown events will occur. Click on RUN to see!,English,5fb01a5f4ab51d370112332c,26632,male,4,1606925440854,NA,NA,NA,y,44.70151666666667,NA,r,6,NA,animation_slider
1260,NA,5,Wed Dec 02 2020 09:10:40 GMT-0700 (Mountain Standard Time),NA,50,NA,ry,certain,27,distance0,NA,none,NA,r,NA,NA,NA,1606928122945,impossible,NA,50,5|64|4|27,NA,4,Higher Degree,Please indicate how likely you think the shown events will occur. Click on RUN to see!,English,5fb01a5f4ab51d370112332c,24341,male,5,1606925440854,NA,NA,NA,y,44.70151666666667,NA,r,64,NA,animation_slider
1260,NA,15,Wed Dec 02 2020 09:10:40 GMT-0700 (Mountain Standard Time),NA,50,NA,ry,certain,10,ac3,NA,none,NA,none,NA,NA,NA,1606928122945,impossible,NA,50,15|67|8|10,NA,8,Higher Degree,Please indicate how likely you think the shown events will occur. Click on RUN to see!,English,5fb01a5f4ab51d370112332c,22344,male,6,1606925440854,NA,NA,NA,y,44.70151666666667,NA,r,67,NA,animation_slider
1260,NA,25,Wed Dec 02 2020 09:10:40 GMT-0700 (Mountain Standard Time),NA,50,NA,ry,certain,38,uncertain2,NA,none,NA,r,NA,NA,NA,1606928122945,impossible,NA,50,25|10|27|38,NA,27,Higher Degree,Please indicate how likely you think the shown events will occur. Click on RUN to see!,English,5fb01a5f4ab51d370112332c,24134,male,7,1606925440854,NA,NA,NA,y,44.70151666666667,NA,r,10,NA,animation_slider
1260,NA,37,Wed Dec 02 2020 09:10:40 GMT-0700 (Mountain Standard Time),NA,50,NA,ry,certain,1,ind0,NA,none,NA,r,NA,NA,NA,1606928122945,impossible,NA,50,37|36|26|1,NA,26,Higher Degree,Please indicate how likely you think the shown events will occur. Click on RUN to see!,English,5fb01a5f4ab51d370112332c,31311,male,8,1606925440854,NA,NA,NA,y,44.70151666666667,NA,r,36,NA,animation_slider
1260,NA,54,Wed Dec 02 2020 09:10:40 GMT-0700 (Mountain Standard Time),NA,50,NA,ry,certain,43,ac1,NA,none,NA,y,NA,NA,NA,1606928122945,impossible,NA,50,54|0|3|43,NA,3,Higher Degree,Please indicate how likely you think the shown events will occur. Click on RUN to see!,English,5fb01a5f4ab51d370112332c,30623,male,9,1606925440854,NA,NA,NA,y,44.70151666666667,NA,r,0,NA,animation_slider
1260,NA,10,Wed Dec 02 2020 09:10:40 GMT-0700 (Mountain Standard Time),NA,50,NA,ry,certain,5,uncertain1,NA,none,NA,r,NA,NA,NA,1606928122945,impossible,NA,50,10|42|42|5,NA,42,Higher Degree,Please indicate how likely you think the shown events will occur. Click on RUN to see!,English,5fb01a5f4ab51d370112332c,16295,male,10,1606925440854,NA,NA,NA,y,44.70151666666667,NA,r,42,NA,animation_slider
1260,NA,37,Wed Dec 02 2020 09:10:40 GMT-0700 (Mountain Standard Time),NA,50,NA,ry,certain,27,ind1,NA,none,NA,ry,NA,NA,NA,1606928122945,impossible,NA,50,37|33|3|27,NA,3,Higher Degree,Please indicate how likely you think the shown events will occur. Click on RUN to see!,English,5fb01a5f4ab51d370112332c,20777,male,11,1606925440854,NA,NA,NA,y,44.70151666666667,NA,r,33,NA,animation_slider
1260,NA,8,Wed Dec 02 2020 09:10:40 GMT-0700 (Mountain Standard Time),NA,50,NA,ry,certain,2,ac2,NA,none,NA,ry,NA,NA,NA,1606928122945,impossible,NA,50,8|13|77|2,NA,77,Higher Degree,Please indicate how likely you think the shown events will occur. Click on RUN to see!,English,5fb01a5f4ab51d370112332c,18705,male,12,1606925440854,NA,NA,NA,y,44.70151666666667,NA,r,13,NA,animation_slider
1260,NA,43,Wed Dec 02 2020 09:10:40 GMT-0700 (Mountain Standard Time),NA,50,NA,ry,certain,46,uncertain0,NA,none,NA,y,NA,NA,NA,1606928122945,impossible,NA,50,43|7|4|46,NA,4,Higher Degree,Please indicate how likely you think the shown events will occur. Click on RUN to see!,English,5fb01a5f4ab51d370112332c,17026,male,13,1606925440854,NA,NA,NA,y,44.70151666666667,NA,r,7,NA,animation_slider
1260,NA,7,Wed Dec 02 2020 09:10:40 GMT-0700 (Mountain Standard Time),NA,50,NA,ry,certain,3,ssw1,NA,none,NA,none,NA,NA,NA,1606928122945,impossible,NA,50,7|47|43|3,NA,43,Higher Degree,Please indicate how likely you think the shown events will occur. Click on RUN to see!,English,5fb01a5f4ab51d370112332c,17489,male,14,1606925440854,NA,NA,NA,y,44.70151666666667,NA,r,47,NA,animation_slider
1260,NA,the green block falls but the blue block does not,Wed Dec 02 2020 09:10:40 GMT-0700 (Mountain Standard Time),NA,50,group2,NA,NA,1,ind2,NA,NA,NA,NA,NA,NA,NA,1606928122945,NA,NA,50,the green block falls but the blue block does not|,NA,5,Higher Degree,TRY OUT EXAMPLE &mdash;Task 2: Please describe to a critical friend as adequately as possible <br/>what happens with the blue and the green block in the picture.,English,5fb01a5f4ab51d370112332c,96825,male,1,1606925440854,stimuli/img/train_slider_fridge/ind2_test_colors.jpg,5,NA,NA,44.70151666666667,NA,NA,NA,NA,fridge_train
1260,NA,37,Wed Dec 02 2020 09:10:40 GMT-0700 (Mountain Standard Time),NA,50,group2,bg,certain,0,if1_lh,NA,none,NA,NA,NA,NA,NA,1606928122945,impossible,NA,50,37|7|56|0,NA,56,Higher Degree,Task 1: Please indicate how likely you think the shown events will occur.,English,5fb01a5f4ab51d370112332c,17017,male,2,1606925440854,stimuli/img/group2/if1_lh.png,NA,NA,g,44.70151666666667,NA,b,7,NA,multiple_slider0
1260,NA,the green block falls but the blue block does not,Wed Dec 02 2020 09:10:40 GMT-0700 (Mountain Standard Time),NA,50,group2,NA,NA,1,if1_lh,NA,NA,NA,NA,NA,NA,NA,1606928122945,NA,NA,50,the green block falls but the blue block does not|,NA,5,Higher Degree,Task 2: Please describe to a critical friend as adequately as possible <br/>what happens with the blue and the green block in the picture.,English,5fb01a5f4ab51d370112332c,21499,male,3,1606925440854,stimuli/img/group2/if1_lh.png,5,NA,NA,44.70151666666667,NA,NA,NA,NA,fridge_view0
1260,NA,8,Wed Dec 02 2020 09:10:40 GMT-0700 (Mountain Standard Time),NA,50,group2,bg,certain,1,if2_ul,NA,none,NA,NA,NA,NA,NA,1606928122945,impossible,NA,50,8|42|49|1,NA,49,Higher Degree,Task 1: Please indicate how likely you think the shown events will occur.,English,5fb01a5f4ab51d370112332c,9204,male,4,1606925440854,stimuli/img/group2/if2_ul.png,NA,NA,g,44.70151666666667,NA,b,42,NA,multiple_slider1
1260,NA,neither block falls,Wed Dec 02 2020 09:10:40 GMT-0700 (Mountain Standard Time),NA,50,group2,NA,NA,1,if2_ul,NA,NA,NA,NA,NA,NA,NA,1606928122945,NA,NA,50,neither block falls|,NA,2,Higher Degree,Task 2: Please describe to a critical friend as adequately as possible <br/>what happens with the blue and the green block in the picture.,English,5fb01a5f4ab51d370112332c,25485,male,5,1606925440854,stimuli/img/group2/if2_ul.png,2,NA,NA,44.70151666666667,NA,NA,NA,NA,fridge_view1
